Timestamp	Acc.X	Acc.Y	Acc.Z	Gyro.X	Gyro.Y	Gyro.Z	Magn.X	Magn.Y	Magn.Z	Distance.x	Distance.y	P.0	P.1	P.2	P.3	P.4	P.5	P.6	P.7	P.8	P.9	P.10	P.11	P.12	P.13	P.14	P.15	PPG_RED.	PPG_IR.	PPG_GREEN.
1632916180016	569.496	-34.648	696.864	-2.87	-3.5	0	-87	-196.5	-1369.5	0	0	0	0	0	0	0	0	0	0	0	0	0	0	0	0	0	0	6570	5593	0
1632916180026	-12.688	-284.504	1119.472	-11.55	5.18	-34.09	-87	-351	-1254	0	0	0	0	0	0	0	0	0	0	0	0	0	0	0	0	0	0	6540	5614	0
1632916180036	25.376	-303.536	859.368	-23.59	27.86	-14.84	-106.5	-364.5	-1257	0	0	0	0	0	0	0	0	0	0	0	0	0	0	0	0	0	0	6555	5591	0
1632916180046	184.952	-359.168	801.784	-15.96	26.81	-0.77	-117	-363	-1257	0	0	0	0	0	0	0	0	0	0	0	0	0	0	0	0	0	0	6536	5596	0
1632916180056	354.288	-372.344	811.544	-16.38	18.83	14.84	-114	-357	-1257	0	0	0	0	0	0	0	0	0	0	0	0	0	0	0	0	0	0	6545	5591	0
1632916180066	437.736	-503.128	1033.584	-29.19	17.99	31.01	-109.5	-360	-1261.5	0	0	0	0	0	0	0	0	0	0	0	0	0	0	0	0	0	0	6540	5599	0
1632916180076	562.664	-536.8	922.32	4.41	30.59	34.16	-106.5	-354	-1267.5	0	0	0	0	0	0	0	0	0	0	0	0	0	0	0	0	0	0	6545	5586	0
1632916180086	618.296	-491.904	918.416	16.59	37.38	18.55	-103.5	-346.5	-1272	0	0	0	0	0	0	0	0	0	0	0	0	0	0	0	0	0	0	6536	5576	0
1632916180096	576.816	-405.04	908.168	25.27	34.65	-0.07	-99	-343.5	-1275	0	0	0	0	0	0	0	0	0	0	0	0	0	0	0	0	0	0	6530	5596	0
1632916180106	510.936	-300.608	886.696	31.64	31.22	-11.13	-99	-339	-1281	0	0	0	0	0	0	0	0	0	0	0	0	0	0	0	0	0	0	6525	5597	0
1632916180116	445.056	-240.096	844.728	32.2	22.33	-14.63	-105	-340.5	-1284	0	0	0	0	0	0	0	0	0	0	0	0	0	0	0	0	0	0	6543	5582	0
1632916180126	393.816	-189.344	832.04	26.81	12.39	-13.3	-114	-339	-1287	0	0	0	0	0	0	0	0	0	0	0	0	0	0	0	0	0	0	6535	5588	0
1632916180136	408.456	-159.576	820.816	23.31	6.44	-8.75	-118.5	-331.5	-1278	0	0	0	0	0	0	0	0	0	0	0	0	0	0	0	0	0	0	6531	5585	0
1632916180146	440.664	-152.256	829.6	17.85	8.33	2.52	-117	-330	-1279.5	0	0	0	0	0	0	0	0	0	0	0	0	0	0	0	0	0	0	6531	5602	0
1632916180156	458.72	-162.504	823.744	14.35	12.88	13.02	-118.5	-328.5	-1290	0	0	0	0	0	0	0	0	0	0	0	0	0	0	0	0	0	0	6538	5576	0
1632916180166	459.208	-181.536	830.576	9.45	15.33	20.02	-120	-328.5	-1297.5	0	0	0	0	0	0	0	0	0	0	0	0	0	0	0	0	0	0	6528	5586	0
1632916180176	435.784	-186.904	835.456	6.65	17.78	25.2	-126	-324	-1297.5	0	0	0	0	0	0	0	0	0	0	0	0	0	0	0	0	0	0	6536	5574	0
1632916180186	478.24	-263.52	874.008	4.27	21.56	33.04	-127.5	-322.5	-1293	0	0	0	0	0	0	0	0	0	0	0	0	0	0	0	0	0	0	6519	5598	0
1632916180196	480.68	-284.016	884.744	3.64	21.84	33.04	-120	-321	-1291.5	0	0	0	0	0	0	0	0	0	0	0	0	0	0	0	0	0	0	6533	5580	0
1632916180206	481.656	-298.656	884.256	5.11	21.35	31.78	-115.5	-312	-1299	0	0	0	0	0	0	0	0	0	0	0	0	0	0	0	0	0	0	6526	5584	0
1632916180216	488.976	-302.072	872.544	5.53	17.22	26.6	-114	-310.5	-1303.5	0	0	0	0	0	0	0	0	0	0	0	0	0	0	0	0	0	0	6537	5575	0
1632916180226	471.408	-285.968	873.032	5.11	13.51	18.9	-115.5	-310.5	-1300.5	0	0	0	0	0	0	0	0	0	0	0	0	0	0	0	0	0	0	6522	5605	0
1632916180236	480.192	-297.68	859.856	3.22	9.94	12.53	-117	-303	-1306.5	0	0	0	0	0	0	0	0	0	0	0	0	0	0	0	0	0	0	6532	5583	0
1632916180246	509.472	-374.784	887.184	2.94	3.29	3.5	-112.5	-295.5	-1312.5	0	0	0	0	0	0	0	0	0	0	0	0	0	0	0	0	0	0	6532	5585	0
1632916180256	526.552	-409.92	887.184	6.09	-4.06	-12.04	-109.5	-295.5	-1317	0	0	0	0	0	0	0	0	0	0	0	0	0	0	0	0	0	0	6532	5578	0
1632916180266	461.16	-385.032	892.552	7.91	-6.37	-22.26	-108	-298.5	-1320	0	0	0	0	0	0	0	0	0	0	0	0	0	0	0	0	0	0	6520	5595	0
1632916180276	408.456	-354.288	852.048	11.76	-4.06	-22.4	-108	-294	-1311	0	0	0	0	0	0	0	0	0	0	0	0	0	0	0	0	0	0	6532	5566	0
1632916180286	335.256	-320.128	845.704	11.9	-4.13	-15.54	-111	-294	-1306.5	0	0	0	0	0	0	0	0	0	0	0	0	0	0	0	0	0	0	6519	5577	0
1632916180296	362.584	-327.936	851.56	15.12	-0.7	-6.02	-118.5	-297	-1305	0	0	0	0	0	0	0	0	0	0	0	0	0	0	0	0	0	0	6528	5578	0
1632916180306	420.168	-271.328	854.976	19.74	0.91	-1.19	-123	-298.5	-1311	0	0	0	0	0	0	0	0	0	0	0	0	0	0	0	0	0	0	6514	5595	0
1632916180316	447.984	-233.752	855.464	16.24	3.15	2.87	-126	-303	-1312.5	0	0	0	0	0	0	0	0	0	0	0	0	0	0	0	0	0	0	6531	5586	0
1632916180326	459.208	-223.992	857.904	15.96	3.99	3.08	-126	-301.5	-1306.5	0	0	0	0	0	0	0	0	0	0	0	0	0	0	0	0	0	0	6524	5582	0
1632916180336	466.04	-223.504	854.488	13.51	2.94	1.19	-126	-295.5	-1314	0	0	0	0	0	0	0	0	0	0	0	0	0	0	0	0	0	0	6524	5578	0
1632916180346	469.944	-217.16	850.584	11.06	1.54	0.21	-133.5	-294	-1314	0	0	0	0	0	0	0	0	0	0	0	0	0	0	0	0	0	0	6512	5598	0
1632916180356	468.48	-228.872	847.168	4.55	3.57	1.26	-141	-297	-1314	0	0	0	0	0	0	0	0	0	0	0	0	0	0	0	0	0	0	6527	5582	0
1632916180366	467.016	-236.192	862.784	-0.28	4.48	2.73	-144	-297	-1312.5	0	0	0	0	0	0	0	0	0	0	0	0	0	0	0	0	0	0	6522	5586	0
1632916180376	443.592	-263.032	864.736	-3.64	2.8	2.87	-142.5	-300	-1314	0	0	0	0	0	0	0	0	0	0	0	0	0	0	0	0	0	0	6525	5583	0
1632916180386	429.44	-304.512	899.384	-2.38	3.5	4.13	-138	-298.5	-1314	0	0	0	0	0	0	0	0	0	0	0	0	0	0	0	0	0	0	6500	5596	0
1632916180396	440.664	-318.664	901.824	0.63	3.29	4.2	-133.5	-300	-1311	0	0	0	0	0	0	0	0	0	0	0	0	0	0	0	0	0	0	6536	5584	0
1632916180406	447.008	-313.296	904.264	3.01	2.03	3.36	-135	-300	-1312.5	0	0	0	0	0	0	0	0	0	0	0	0	0	0	0	0	0	0	6527	5572	0
1632916180416	429.928	-302.072	905.728	6.02	0.7	1.33	-135	-297	-1317	0	0	0	0	0	0	0	0	0	0	0	0	0	0	0	0	0	0	6528	5574	0
1632916180426	414.312	-265.96	894.504	7.21	-1.33	-2.38	-133.5	-297	-1320	0	0	0	0	0	0	0	0	0	0	0	0	0	0	0	0	0	0	6501	5594	0
1632916180436	401.136	-234.728	875.472	7.42	-3.08	-4.55	-135	-295.5	-1318.5	0	0	0	0	0	0	0	0	0	0	0	0	0	0	0	0	0	0	6529	5574	0
1632916180446	421.632	-205.448	861.32	6.09	-4.06	-4.9	-136.5	-292.5	-1315.5	0	0	0	0	0	0	0	0	0	0	0	0	0	0	0	0	0	0	6502	5592	0
1632916180456	458.72	-186.416	861.808	2.59	-4.34	-3.85	-135	-297	-1312.5	0	0	0	0	0	0	0	0	0	0	0	0	0	0	0	0	0	0	6493	5598	0
1632916180466	481.656	-201.056	859.856	-2.17	-5.04	-4.13	-130.5	-300	-1317	0	0	0	0	0	0	0	0	0	0	0	0	0	0	0	0	0	0	6493	5598	0
1632916180476	499.712	-221.552	867.664	-5.88	-6.09	-6.93	-138	-300	-1314	0	0	0	0	0	0	0	0	0	0	0	0	0	0	0	0	0	0	6480	5594	0
1632916180486	490.44	-222.04	870.592	-9.24	-5.74	-8.96	-138	-301.5	-1311	0	0	0	0	0	0	0	0	0	0	0	0	0	0	0	0	0	0	6492	5594	0
1632916180496	438.224	-277.672	879.864	-6.51	-3.92	-8.26	-132	-301.5	-1311	0	0	0	0	0	0	0	0	0	0	0	0	0	0	0	0	0	0	6480	5596	0
1632916180506	432.856	-299.144	874.496	-8.12	-2.24	-6.3	-130.5	-303	-1308	0	0	0	0	0	0	0	0	0	0	0	0	0	0	0	0	0	0	6495	5585	0
1632916180516	457.744	-287.92	876.936	-4.27	-3.01	-8.54	-130.5	-301.5	-1314	0	0	0	0	0	0	0	0	0	0	0	0	0	0	0	0	0	0	6484	5596	0
1632916180526	455.304	-268.888	863.272	-4.06	-3.36	-10.08	-135	-298.5	-1317	0	0	0	0	0	0	0	0	0	0	0	0	0	0	0	0	0	0	6476	5588	0
1632916180536	436.272	-288.896	879.864	-6.02	-2.59	-9.87	-139.5	-298.5	-1314	0	0	0	0	0	0	0	0	0	0	0	0	0	0	0	0	0	0	6478	5601	0
1632916180546	422.12	-288.408	876.936	-6.3	-3.5	-11.62	-139.5	-298.5	-1312.5	0	0	0	0	0	0	0	0	0	0	0	0	0	0	0	0	0	0	6477	5589	0
1632916180556	417.728	-270.352	897.432	-7.49	-4.48	-12.25	-141	-295.5	-1308	0	0	0	0	0	0	0	0	0	0	0	0	0	0	0	0	0	0	6496	5599	0
1632916180566	427	-253.76	884.744	-4.48	-4.62	-11.41	-144	-297	-1306.5	0	0	0	0	0	0	0	0	0	0	0	0	0	0	0	0	0	0	6482	5602	0
1632916180576	451.888	-250.344	879.376	-5.11	-4.69	-10.43	-138	-298.5	-1311	0	0	0	0	0	0	0	0	0	0	0	0	0	0	0	0	0	0	6467	5604	0
1632916180586	459.208	-252.784	873.032	-6.3	-5.32	-11.2	-133.5	-300	-1305	0	0	0	0	0	0	0	0	0	0	0	0	0	0	0	0	0	0	6481	5597	0
1632916180596	448.96	-272.792	870.104	-6.65	-4.62	-9.38	-135	-303	-1308	0	0	0	0	0	0	0	0	0	0	0	0	0	0	0	0	0	0	6475	5593	0
1632916180606	459.696	-296.216	871.568	-4.62	-3.57	-7.07	-138	-306	-1311	0	0	0	0	0	0	0	0	0	0	0	0	0	0	0	0	0	0	6496	5590	0
1632916180616	460.184	-290.36	860.832	-2.59	-1.82	-4.62	-139.5	-306	-1305	0	0	0	0	0	0	0	0	0	0	0	0	0	0	0	0	0	0	6492	5585	0
1632916180626	462.624	-286.456	854.488	-2.24	-0.21	-2.17	-138	-307.5	-1306.5	0	0	0	0	0	0	0	0	0	0	0	0	0	0	0	0	0	0	6512	5609	0
1632916180636	450.424	-295.24	861.32	-1.4	0.42	-2.38	-132	-310.5	-1308	0	0	0	0	0	0	0	0	0	0	0	0	0	0	0	0	0	0	6525	5621	0
1632916180646	450.912	-289.872	867.176	-0.77	-0.07	-2.52	-132	-310.5	-1303.5	0	0	0	0	0	0	0	0	0	0	0	0	0	0	0	0	0	0	6541	5621	0
1632916180656	446.032	-282.552	872.544	0	0.21	-1.05	-139.5	-310.5	-1306.5	0	0	0	0	0	0	0	0	0	0	0	0	0	0	0	0	0	0	6564	5647	0
1632916180666	428.464	-256.2	873.032	0.42	0.63	-0.35	-135	-312	-1309.5	0	0	0	0	0	0	0	0	0	0	0	0	0	0	0	0	0	0	6577	5684	0
1632916180676	430.904	-246.44	874.984	0.28	-0.07	-1.4	-136.5	-307.5	-1308	0	0	0	0	0	0	0	0	0	0	0	0	0	0	0	0	0	0	6597	5718	0
1632916180686	428.464	-238.144	867.664	0.21	-0.77	-1.33	-139.5	-306	-1308	0	0	0	0	0	0	0	0	0	0	0	0	0	0	0	0	0	0	6631	5792	0
1632916180696	448.96	-266.936	870.104	-2.45	-0.91	-0.28	-136.5	-310.5	-1308	0	0	0	0	0	0	0	0	0	0	0	0	0	0	0	0	0	0	6657	5842	0
1632916180706	465.552	-260.104	839.36	-3.92	-1.82	-1.96	-139.5	-310.5	-1302	0	0	0	0	0	0	0	0	0	0	0	0	0	0	0	0	0	0	6684	5944	0
1632916180716	455.792	-265.472	887.184	-5.25	-4.76	-2.38	-141	-309	-1303.5	0	0	0	0	0	0	0	0	0	0	0	0	0	0	0	0	0	0	6736	6048	0
1632916180726	450.424	-291.824	853.512	-2.59	-0.91	-1.61	-135	-307.5	-1299	0	0	0	0	0	0	0	0	0	0	0	0	0	0	0	0	0	0	6801	6154	0
1632916180736	453.84	-311.832	866.2	-1.47	0.84	0.7	-132	-309	-1305	0	0	0	0	0	0	0	0	0	0	0	0	0	0	0	0	0	0	6860	6267	0
1632916180746	452.864	-323.056	881.328	1.82	2.31	3.22	-138	-309	-1308	0	0	0	0	0	0	0	0	0	0	0	0	0	0	0	0	0	0	6922	6355	0
1632916180756	450.424	-300.12	881.328	5.74	2.03	3.99	-138	-304.5	-1303.5	0	0	0	0	0	0	0	0	0	0	0	0	0	0	0	0	0	0	6949	6409	0
1632916180766	452.864	-302.56	877.912	6.44	-15.12	2.45	-130.5	-301.5	-1308	0	0	0	0	0	0	0	0	0	0	0	0	0	0	0	0	0	0	6956	6425	0
1632916180776	463.112	-203.984	894.504	2.52	-19.39	0.28	-135	-306	-1309.5	0	0	0	0	0	0	0	0	0	0	0	0	0	0	0	0	0	0	6957	6414	0
1632916180786	427.976	-248.392	892.552	6.44	0.21	-0.21	-138	-310.5	-1318.5	0	0	0	0	0	0	0	0	0	0	0	0	0	0	0	0	0	0	6926	6386	0
1632916180796	452.376	-230.336	855.464	4.55	1.19	-0.14	-136.5	-309	-1320	0	0	0	0	0	0	0	0	0	0	0	0	0	0	0	0	0	0	6903	6341	0
1632916180806	461.648	-222.528	852.536	1.89	-0.28	-1.12	-138	-307.5	-1318.5	0	0	0	0	0	0	0	0	0	0	0	0	0	0	0	0	0	0	6896	6291	0
1632916180816	456.28	-244	853.024	-0.98	0.7	1.12	-141	-307.5	-1320	0	0	0	0	0	0	0	0	0	0	0	0	0	0	0	0	0	0	6867	6259	0
1632916180826	440.664	-258.64	849.12	-2.1	3.36	4.9	-144	-312	-1317	0	0	0	0	0	0	0	0	0	0	0	0	0	0	0	0	0	0	6860	6247	0
1632916180836	450.912	-279.136	841.312	-2.1	4.69	7.77	-144	-316.5	-1321.5	0	0	0	0	0	0	0	0	0	0	0	0	0	0	0	0	0	0	6866	6243	0
1632916180846	466.04	-294.264	858.88	-3.15	5.74	9.17	-147	-312	-1326	0	0	0	0	0	0	0	0	0	0	0	0	0	0	0	0	0	0	6861	6239	0
1632916180857	457.256	-300.608	857.904	-3.15	5.95	9.59	-142.5	-310.5	-1324.5	0	0	0	0	0	0	0	0	0	0	0	0	0	0	0	0	0	0	6854	6242	0
1632916180867	444.568	-301.096	874.496	-2.03	6.72	10.36	-136.5	-313.5	-1326	0	0	0	0	0	0	0	0	0	0	0	0	0	0	0	0	0	0	6853	6234	0
1632916180877	433.344	-283.04	869.128	-1.4	7.14	12.25	-138	-312	-1323	0	0	0	0	0	0	0	0	0	0	0	0	0	0	0	0	0	0	6846	6210	0
1632916180887	428.952	-263.52	857.904	-2.03	7.42	16.73	-133.5	-310.5	-1324.5	0	0	0	0	0	0	0	0	0	0	0	0	0	0	0	0	0	0	6834	6186	0
1632916180897	413.336	-280.112	866.2	-5.88	6.58	19.88	-129	-309	-1327.5	0	0	0	0	0	0	0	0	0	0	0	0	0	0	0	0	0	0	6813	6154	0
1632916180907	428.952	-307.44	869.128	-7.28	3.99	19.74	-129	-309	-1332	0	0	0	0	0	0	0	0	0	0	0	0	0	0	0	0	0	0	6806	6124	0
1632916180917	448.472	-349.896	895.968	-8.19	1.19	12.53	-120	-306	-1333.5	0	0	0	0	0	0	0	0	0	0	0	0	0	0	0	0	0	0	6792	6101	0
1632916180927	456.28	-326.472	889.624	-3.22	-2.1	3.01	-120	-304.5	-1335	0	0	0	0	0	0	0	0	0	0	0	0	0	0	0	0	0	0	6794	6113	0
1632916180937	461.16	-325.496	883.768	-2.03	-3.5	-1.4	-120	-304.5	-1330.5	0	0	0	0	0	0	0	0	0	0	0	0	0	0	0	0	0	0	6797	6127	0
1632916180947	443.592	-320.616	885.72	0.77	-2.94	-3.64	-117	-306	-1320	0	0	0	0	0	0	0	0	0	0	0	0	0	0	0	0	0	0	6828	6173	0
1632916180957	428.464	-305.488	866.2	3.71	-1.4	-3.01	-120	-300	-1324.5	0	0	0	0	0	0	0	0	0	0	0	0	0	0	0	0	0	0	6873	6241	0
1632916180967	417.728	-294.752	860.344	6.09	-1.12	-1.61	-121.5	-303	-1332	0	0	0	0	0	0	0	0	0	0	0	0	0	0	0	0	0	0	6939	6348	0
1632916180977	428.464	-291.824	851.56	7.14	-0.56	3.15	-118.5	-307.5	-1329	0	0	0	0	0	0	0	0	0	0	0	0	0	0	0	0	0	0	7017	6509	0
1632916180987	430.416	-293.288	868.152	8.4	1.05	7.28	-120	-309	-1333.5	0	0	0	0	0	0	0	0	0	0	0	0	0	0	0	0	0	0	7187	6757	0
1632916180997	442.616	-280.112	854	4.76	1.96	7.49	-123	-310.5	-1338	0	0	0	0	0	0	0	0	0	0	0	0	0	0	0	0	0	0	7381	7110	0
1632916181007	410.408	-272.304	879.376	4.9	-1.05	5.46	-126	-307.5	-1335	0	0	0	0	0	0	0	0	0	0	0	0	0	0	0	0	0	0	7701	7607	0
1632916181017	386.496	-265.472	886.208	0.42	-1.75	6.86	-129	-304.5	-1333.5	0	0	0	0	0	0	0	0	0	0	0	0	0	0	0	0	0	0	8115	8265	0
1632916181027	385.032	-282.552	896.944	-2.38	-2.38	8.75	-129	-304.5	-1335	0	0	0	0	0	0	0	0	0	0	0	0	0	0	0	0	0	0	8677	9096	0
1632916181037	401.624	-317.688	916.464	-1.12	-3.36	12.18	-124.5	-303	-1338	0	0	0	0	0	0	0	0	0	0	0	0	0	0	0	0	0	0	9391	10125	0
1632916181047	409.432	-298.656	915	4.62	-4.9	14.63	-120	-304.5	-1339.5	0	0	0	0	0	0	0	0	0	0	0	0	0	0	0	0	0	0	10208	11206	0
1632916181057	438.712	-309.392	900.848	7.14	-2.38	16.1	-118.5	-304.5	-1339.5	0	0	0	0	0	0	0	0	0	0	0	0	0	0	0	0	0	0	10951	12152	0
1632916181067	459.696	-294.264	890.6	10.08	-2.52	15.61	-121.5	-304.5	-1338	0	0	0	0	0	0	0	0	0	0	0	0	0	0	0	0	0	0	11787	13255	0
1632916181077	443.592	-284.992	877.912	10.64	-3.36	11.97	-123	-304.5	-1336.5	0	0	0	0	0	0	0	0	0	0	0	0	0	0	0	0	0	0	12934	14754	0
1632916181087	443.104	-289.872	886.208	10.78	-4.48	6.02	-127.5	-309	-1336.5	0	0	0	0	0	0	0	0	0	0	0	0	0	0	0	0	0	0	14565	16934	0
1632916181097	416.264	-270.352	883.28	10.92	-2.38	0	-124.5	-307.5	-1336.5	0	0	0	0	0	0	0	0	0	0	0	0	0	0	0	0	0	0	17204	20362	0
1632916181107	412.848	-287.92	904.752	5.11	3.85	3.22	-118.5	-304.5	-1339.5	0	0	0	0	0	0	0	0	0	0	0	0	0	0	0	0	0	0	20929	25042	0
1632916181117	400.648	-315.736	913.048	6.58	4.13	7.77	-124.5	-301.5	-1342.5	0	0	0	0	0	0	0	0	0	0	0	0	0	0	0	0	0	0	26378	31442	0
1632916181127	406.992	-335.256	927.2	7.42	4.9	9.94	-126	-295.5	-1345.5	0	0	0	0	0	0	0	0	0	0	0	0	0	0	0	0	0	0	32531	38149	0
1632916181137	402.6	-320.616	938.424	7.98	7.98	15.33	-123	-294	-1342.5	0	0	0	0	0	0	0	0	0	0	0	0	0	0	0	0	0	0	37850	43495	0
1632916181147	400.16	-308.904	937.936	10.43	10.29	22.54	-121.5	-294	-1342.5	0	0	0	0	0	0	0	0	0	0	0	0	0	0	0	0	0	0	41470	46796	0
1632916181157	368.928	-285.48	900.36	12.11	12.32	27.3	-121.5	-289.5	-1344	0	0	0	0	0	0	0	0	0	0	0	0	0	0	0	0	0	0	42932	47885	0
1632916181167	347.456	-270.352	899.872	7.14	13.65	33.11	-121.5	-285	-1351.5	0	0	0	0	0	0	0	0	0	0	0	0	0	0	0	0	0	0	44638	49612	0
1632916181177	330.376	-284.992	913.048	0.63	15.75	38.78	-118.5	-274.5	-1357.5	0	0	0	0	0	0	0	0	0	0	0	0	0	0	0	0	0	0	47874	52555	0
1632916181187	334.768	-357.704	923.784	-4.76	19.18	46.06	-115.5	-271.5	-1354.5	0	0	0	0	0	0	0	0	0	0	0	0	0	0	0	0	0	0	51816	57079	0
1632916181197	381.128	-447.984	948.184	-6.65	19.32	49.63	-115.5	-270	-1357.5	0	0	0	0	0	0	0	0	0	0	0	0	0	0	0	0	0	0	57946	63606	0
1632916181207	439.2	-543.144	1021.384	-2.31	12.25	40.04	-111	-264	-1362	0	0	0	0	0	0	0	0	0	0	0	0	0	0	0	0	0	0	67370	73263	0
1632916181217	408.944	-509.472	1016.016	7.28	14.42	32.62	-109.5	-258	-1368	0	0	0	0	0	0	0	0	0	0	0	0	0	0	0	0	0	0	78610	88132	0
1632916181227	418.704	-394.304	1002.84	19.74	23.31	30.31	-105	-250.5	-1372.5	0	0	0	0	0	0	0	0	0	0	0	0	0	0	0	0	0	0	91419	109811	0
1632916181237	727.12	-121.512	939.888	46.55	-3.29	-7.63	-102	-244.5	-1366.5	0	0	0	0	0	0	0	0	0	0	0	0	0	0	0	0	0	0	100133	128417	0
1632916181247	665.144	-89.792	737.368	54.6	-51.45	-57.05	-108	-240	-1360.5	0	0	0	0	0	0	0	0	0	0	0	0	0	0	0	0	0	0	107713	147349	0
1632916181257	570.96	-153.232	708.088	7.63	-36.68	-55.58	-121.5	-232.5	-1356	0	0	0	0	0	0	0	0	0	0	0	0	0	0	0	0	0	0	115544	165821	0
1632916181267	558.76	-124.928	746.64	-35	-16.52	-30.31	-135	-232.5	-1353	0	0	0	0	0	0	0	0	0	0	0	0	0	0	0	0	0	0	122199	181102	0
1632916181277	558.76	-68.808	754.936	-51.94	-7.98	-22.75	-135	-237	-1351.5	0	0	0	0	0	0	0	0	0	0	0	0	0	0	0	0	0	0	127158	190407	0
1632916181287	530.944	-92.72	672.952	-66.22	-16.8	-24.92	-127.5	-238.5	-1348.5	0	0	0	0	0	0	0	0	0	0	0	0	0	0	0	0	0	0	130484	196830	0
1632916181297	230.336	-187.88	726.632	-94.57	6.65	23.17	-118.5	-238.5	-1347	0	0	0	0	0	0	0	0	0	0	0	0	0	0	0	0	0	0	132281	200824	0
1632916181307	-167.384	-486.048	725.656	-94.92	29.61	115.78	-96	-237	-1345.5	0	0	0	0	0	0	0	0	0	0	0	0	0	0	0	0	0	0	133796	203884	0
1632916181317	-211.792	-671.976	788.12	-73.99	13.72	141.75	-70.5	-234	-1345.5	0	0	0	0	0	0	0	0	0	0	0	0	0	0	0	0	0	0	134937	206122	0
1632916181327	-81.984	-786.656	922.32	-57.82	10.78	154.49	-52.5	-231	-1351.5	0	0	0	0	0	0	0	0	0	0	0	0	0	0	0	0	0	0	135767	207689	0
1632916181337	69.296	-777.872	1022.848	-27.58	16.73	152.95	-33	-219	-1359	0	0	0	0	0	0	0	0	0	0	0	0	0	0	0	0	0	0	136413	208923	0
1632916181347	227.408	-642.696	1018.456	9.73	25.97	139.72	-10.5	-214.5	-1365	0	0	0	0	0	0	0	0	0	0	0	0	0	0	0	0	0	0	136883	209843	0
1632916181357	302.56	-472.384	930.616	49.21	28.63	116.34	-1.5	-207	-1369.5	0	0	0	0	0	0	0	0	0	0	0	0	0	0	0	0	0	0	137295	210590	0
1632916181367	340.136	-295.24	810.568	80.92	30.59	99.12	0	-199.5	-1380	0	0	0	0	0	0	0	0	0	0	0	0	0	0	0	0	0	0	137612	211234	0
1632916181377	734.44	-344.528	539.728	82.32	21.84	107.31	-1.5	-186	-1386	0	0	0	0	0	0	0	0	0	0	0	0	0	0	0	0	0	0	137818	211673	0
1632916181387	691.008	-215.696	835.456	48.37	-27.93	28.07	-9	-171	-1384.5	0	0	0	0	0	0	0	0	0	0	0	0	0	0	0	0	0	0	137978	212140	0
1632916181397	564.616	-236.68	977.464	21.35	-21.91	28.98	-13.5	-174	-1393.5	0	0	0	0	0	0	0	0	0	0	0	0	0	0	0	0	0	0	138072	212433	0
1632916181407	455.304	-265.472	1050.664	101.43	-24.43	0.7	-18	-175.5	-1402.5	0	0	0	0	0	0	0	0	0	0	0	0	0	0	0	0	0	0	138131	212645	0
1632916181417	429.44	-250.832	930.616	150.43	-24.36	-15.19	-28.5	-174	-1401	0	0	0	0	0	0	0	0	0	0	0	0	0	0	0	0	0	0	138201	212781	0
1632916181427	491.416	-106.872	610	159.25	-12.04	-13.51	-51	-177	-1396.5	0	0	0	0	0	0	0	0	0	0	0	0	0	0	0	0	0	0	138260	212856	0
1632916181437	568.52	188.856	948.672	214.27	14.28	-38.57	-82.5	-175.5	-1396.5	0	0	0	0	0	0	0	0	0	0	0	0	0	0	0	0	0	0	138316	212910	0
1632916181447	1233.664	280.112	560.712	167.93	89.18	-118.86	-109.5	-169.5	-1410	0	0	0	0	0	0	0	0	0	0	0	0	0	0	0	0	0	0	138390	212961	0
1632916181457	520.208	-195.688	871.568	74.13	161.77	-251.93	-132	-148.5	-1429.5	0	0	0	0	0	0	0	0	0	0	0	0	0	0	0	0	0	0	138440	212975	0
1632916181467	404.552	-261.568	854	-24.78	207.34	-158.62	-165	-117	-1446	0	0	0	0	0	0	0	0	0	0	0	0	0	0	0	0	0	0	138530	213028	0
1632916181477	124.928	-140.056	862.784	-69.58	234.43	-159.11	-181.5	-84	-1455	0	0	0	0	0	0	0	0	0	0	0	0	0	0	0	0	0	0	138609	212884	0
1632916181487	145.912	-391.376	917.928	-73.85	203.77	-188.44	-181.5	-45	-1464	0	0	0	0	0	0	0	0	0	0	0	0	0	0	0	0	0	0	138683	212970	0
1632916181497	241.072	-392.352	1109.224	-31.85	148.75	-165.9	-184.5	-9	-1474.5	0	0	0	0	0	0	0	0	0	0	0	0	0	0	0	0	0	0	138758	213064	0
1632916181507	251.32	-315.736	1142.408	43.47	83.44	-129.78	-193.5	13.5	-1485	0	0	0	0	0	0	0	0	0	0	0	0	0	0	0	0	0	0	138847	213224	0
1632916181517	190.808	-244.976	1123.864	80.92	66.92	-78.47	-207	30	-1497	0	0	0	0	0	0	0	0	0	0	0	0	0	0	0	0	0	0	138970	213389	0
1632916181527	152.744	-210.328	1031.632	98.28	72.31	-50.96	-214.5	49.5	-1495.5	0	0	0	0	0	0	0	0	0	0	0	0	0	0	0	0	0	0	139119	213627	0
1632916181537	135.664	-253.272	911.584	97.44	63.7	-43.19	-235.5	66	-1491	0	0	0	0	0	0	0	0	0	0	0	0	0	0	0	0	0	0	139317	213916	0
1632916181547	133.224	-195.2	852.048	83.86	55.65	-31.85	-256.5	76.5	-1488	0	0	0	0	0	0	0	0	0	0	0	0	0	0	0	0	0	0	139519	214198	0
1632916181557	157.624	-77.104	859.856	58.24	76.44	-15.75	-273	84	-1491	0	0	0	0	0	0	0	0	0	0	0	0	0	0	0	0	0	0	139704	214442	0
1632916181567	185.928	-26.352	900.848	43.05	106.4	-13.16	-279	100.5	-1497	0	0	0	0	0	0	0	0	0	0	0	0	0	0	0	0	0	0	139846	214624	0
1632916181577	118.584	-64.416	885.232	34.44	117.39	-10.64	-288	120	-1495.5	0	0	0	0	0	0	0	0	0	0	0	0	0	0	0	0	0	0	139937	214724	0
1632916181587	45.872	-92.72	867.664	32.13	117.25	-5.04	-294	142.5	-1500	0	0	0	0	0	0	0	0	0	0	0	0	0	0	0	0	0	0	140009	214835	0
1632916181597	-14.64	-60.512	900.848	34.65	124.67	-7	-301.5	168	-1503	0	0	0	0	0	0	0	0	0	0	0	0	0	0	0	0	0	0	140084	214926	0
1632916181607	-0.488	-114.68	969.168	45.85	148.61	-5.11	-312	187.5	-1507.5	0	0	0	0	0	0	0	0	0	0	0	0	0	0	0	0	0	0	140197	215042	0
1632916181617	47.824	-2.928	1764.12	52.71	132.44	-11.62	-318	220.5	-1513.5	0	0	0	0	0	0	0	0	0	0	0	0	0	0	0	0	0	0	140317	215155	0
1632916181627	51.24	-205.936	880.84	152.18	32.2	13.37	-330	246	-1513.5	0	0	0	0	0	0	0	0	0	0	0	0	0	0	0	0	0	0	140493	215301	0
1632916181637	79.056	-89.304	732	87.99	60.27	26.25	-352.5	259.5	-1512	0	0	0	0	0	0	0	0	0	0	0	0	0	0	0	0	0	0	140623	215435	0
1632916181647	92.72	-59.536	749.08	18.83	60.97	32.76	-373.5	273	-1515	0	0	0	0	0	0	0	0	0	0	0	0	0	0	0	0	0	0	140682	215551	0
1632916181657	74.664	-15.128	807.152	-58.59	80.5	45.43	-382.5	283.5	-1515	0	0	0	0	0	0	0	0	0	0	0	0	0	0	0	0	0	0	140717	215634	0
1632916181667	5.856	-23.912	857.904	-127.47	124.25	53.83	-384	294	-1522.5	0	0	0	0	0	0	0	0	0	0	0	0	0	0	0	0	0	0	140737	215681	0
1632916181677	25.376	-124.44	935.984	-190.12	164.01	62.51	-361.5	315	-1540.5	0	0	0	0	0	0	0	0	0	0	0	0	0	0	0	0	0	0	140746	215737	0
1632916181687	104.432	-59.048	951.6	-220.64	159.32	74.41	-331.5	343.5	-1549.5	0	0	0	0	0	0	0	0	0	0	0	0	0	0	0	0	0	0	140755	215777	0
1632916181698	227.408	-9.272	826.184	-254.03	122.71	61.18	-300	376.5	-1572	0	0	0	0	0	0	0	0	0	0	0	0	0	0	0	0	0	0	140774	215822	0
1632916181708	28.792	-5.856	923.784	-310.8	96.88	48.93	-255	397.5	-1585.5	0	0	0	0	0	0	0	0	0	0	0	0	0	0	0	0	0	0	140839	215866	0
1632916181718	-49.776	-191.296	912.072	-291.48	83.02	65.1	-199.5	417	-1593	0	0	0	0	0	0	0	0	0	0	0	0	0	0	0	0	0	0	140883	215935	0
1632916181728	-56.608	-304.024	856.928	-257.88	47.39	60.62	-144	435	-1608	0	0	0	0	0	0	0	0	0	0	0	0	0	0	0	0	0	0	140924	215992	0
1632916181738	-61.976	-356.24	757.376	-235.06	-5.39	42	-90	447	-1630.5	0	0	0	0	0	0	0	0	0	0	0	0	0	0	0	0	0	0	140970	216059	0
1632916181748	-261.08	-422.12	674.416	-226.59	-48.86	26.25	-48	454.5	-1648.5	0	0	0	0	0	0	0	0	0	0	0	0	0	0	0	0	0	0	141035	216171	0
1632916181758	-208.376	-387.472	593.408	-224.07	-102.13	4.2	-6	454.5	-1663.5	0	0	0	0	0	0	0	0	0	0	0	0	0	0	0	0	0	0	141142	216305	0
1632916181768	-165.92	-375.76	516.304	-225.75	-135.8	-5.04	40.5	441	-1680	0	0	0	0	0	0	0	0	0	0	0	0	0	0	0	0	0	0	141314	216545	0
1632916181778	-26.84	-363.072	530.944	-231.07	-140.49	-6.58	91.5	414	-1699.5	0	0	0	0	0	0	0	0	0	0	0	0	0	0	0	0	0	0	141513	216837	0
1632916181788	-77.592	-568.52	597.8	-243.53	-117.81	-20.86	144	387	-1725	0	0	0	0	0	0	0	0	0	0	0	0	0	0	0	0	0	0	141715	217160	0
1632916181798	-32.696	-772.992	682.712	-258.79	-119.35	-34.65	198	369	-1750.5	0	0	0	0	0	0	0	0	0	0	0	0	0	0	0	0	0	0	141879	217444	0
1632916181808	123.464	-739.32	905.728	-258.51	-136.99	-54.18	264	348	-1777.5	0	0	0	0	0	0	0	0	0	0	0	0	0	0	0	0	0	0	142005	217710	0
1632916181818	134.688	-836.92	1162.904	-241.43	-145.67	-87.43	336	315	-1795.5	0	0	0	0	0	0	0	0	0	0	0	0	0	0	0	0	0	0	142106	217943	0
1632916181828	56.608	-774.944	1110.688	-206.01	-131.67	-89.11	403.5	273	-1813.5	0	0	0	0	0	0	0	0	0	0	0	0	0	0	0	0	0	0	142221	218210	0
1632916181838	-13.664	-740.296	1043.344	-108.29	-133	-91.63	462	225	-1836	0	0	0	0	0	0	0	0	0	0	0	0	0	0	0	0	0	0	142333	218471	0
1632916181848	-58.56	-798.368	929.152	-20.65	-124.46	-94.78	507	178.5	-1857	0	0	0	0	0	0	0	0	0	0	0	0	0	0	0	0	0	0	142464	218715	0
1632916181858	-653.432	-18.544	944.768	202.65	148.4	-84.07	531	135	-1881	0	0	0	0	0	0	0	0	0	0	0	0	0	0	0	0	0	0	142576	218902	0
1632916181868	-5.856	-793.488	695.4	235.69	81.27	55.23	508.5	108	-1906.5	0	0	0	0	0	0	0	0	0	0	0	0	0	0	0	0	0	0	142635	218983	0
1632916181878	337.696	-943.304	576.816	200.27	41.09	18.9	451.5	106.5	-1932	0	0	0	0	0	0	0	0	0	0	0	0	0	0	0	0	0	0	142672	219044	0
1632916181888	79.056	-701.256	764.696	98.56	48.23	48.3	403.5	123	-1957.5	0	0	0	0	0	0	0	0	0	0	0	0	0	0	0	0	0	0	142667	219067	0
1632916181898	107.36	-637.816	830.088	30.59	75.25	56.56	376.5	138	-1969.5	0	0	0	0	0	0	0	0	0	0	0	0	0	0	0	0	0	0	142649	219032	0
1632916181908	120.536	-618.296	846.192	41.23	80.22	65.94	367.5	147	-1969.5	0	0	0	0	0	0	0	0	0	0	0	0	0	0	0	0	0	0	142625	219037	0
1632916181918	16.592	-454.328	719.312	74.69	70.35	27.02	363	154.5	-1978.5	0	0	0	0	0	0	0	0	0	0	0	0	0	0	0	0	0	0	142619	219067	0
1632916181928	79.544	-582.184	940.376	122.99	90.23	29.82	346.5	168	-1980	0	0	0	0	0	0	0	0	0	0	0	0	0	0	0	0	0	0	142636	219121	0
1632916181938	247.416	-783.728	772.504	189.42	52.57	16.03	324	187.5	-1980	0	0	0	0	0	0	0	0	0	0	0	0	0	0	0	0	0	0	142669	219177	0
1632916181948	-615.856	186.416	597.312	239.89	27.86	30.73	288	199.5	-1986	0	0	0	0	0	0	0	0	0	0	0	0	0	0	0	0	0	0	142714	219251	0
1632916181958	-74.176	-508.984	969.656	225.89	31.57	47.81	231	198	-2002.5	0	0	0	0	0	0	0	0	0	0	0	0	0	0	0	0	0	0	142739	219236	0
1632916181968	-280.112	-396.256	721.264	257.46	-22.05	35.28	174	193.5	-2017.5	0	0	0	0	0	0	0	0	0	0	0	0	0	0	0	0	0	0	142731	219227	0
1632916181978	-107.848	-547.536	885.232	233.45	-12.18	47.95	114	192	-2032.5	0	0	0	0	0	0	0	0	0	0	0	0	0	0	0	0	0	0	142711	219185	0
1632916181988	-183.488	-261.568	749.08	272.23	-39.06	56.14	40.5	192	-2047.5	0	0	0	0	0	0	0	0	0	0	0	0	0	0	0	0	0	0	142693	219162	0
1632916181998	-265.472	-269.376	929.152	265.93	-27.23	88.06	-33	183	-2067	0	0	0	0	0	0	0	0	0	0	0	0	0	0	0	0	0	0	142670	219166	0
1632916182008	-141.032	-112.24	1045.784	263.62	-39.27	113.26	-111	175.5	-2076	0	0	0	0	0	0	0	0	0	0	0	0	0	0	0	0	0	0	142652	219161	0
1632916182018	-234.728	-37.576	1157.048	230.37	-76.3	161.42	-190.5	169.5	-2080.5	0	0	0	0	0	0	0	0	0	0	0	0	0	0	0	0	0	0	142650	219195	0
1632916182028	-195.2	-148.84	1049.688	201.53	-76.44	184.24	-258	165	-2082	0	0	0	0	0	0	0	0	0	0	0	0	0	0	0	0	0	0	142657	219225	0
1632916182038	-187.88	-193.248	1057.496	191.66	-90.3	192.71	-325.5	157.5	-2073	0	0	0	0	0	0	0	0	0	0	0	0	0	0	0	0	0	0	142662	219260	0
1632916182048	-99.064	-282.064	1213.656	160.86	-83.02	192.43	-394.5	136.5	-2058	0	0	0	0	0	0	0	0	0	0	0	0	0	0	0	0	0	0	142668	219266	0
1632916182058	84.424	-174.704	1210.728	78.47	-21.35	153.86	-450	120	-2034	0	0	0	0	0	0	0	0	0	0	0	0	0	0	0	0	0	0	142651	219277	0
1632916182068	52.216	-38.064	817.888	-22.96	73.22	108.64	-486	115.5	-2013	0	0	0	0	0	0	0	0	0	0	0	0	0	0	0	0	0	0	142669	219283	0
1632916182078	-208.864	-705.648	1805.112	-150.15	-38.01	76.79	-492	129	-2002.5	0	0	0	0	0	0	0	0	0	0	0	0	0	0	0	0	0	0	142664	219288	0
1632916182088	152.744	51.728	1264.408	-186.76	-51.87	129.43	-475.5	153	-2005.5	0	0	0	0	0	0	0	0	0	0	0	0	0	0	0	0	0	0	142665	219298	0
1632916182098	91.256	11.712	831.064	-165.97	-7.49	105.77	-442.5	154.5	-1992	0	0	0	0	0	0	0	0	0	0	0	0	0	0	0	0	0	0	142662	219314	0
1632916182108	-9.76	89.792	695.888	-96.39	-45.57	136.92	-399	148.5	-1966.5	0	0	0	0	0	0	0	0	0	0	0	0	0	0	0	0	0	0	142683	219349	0
1632916182118	23.424	-27.328	345.504	24.78	-26.32	105.98	-367.5	153	-1950	0	0	0	0	0	0	0	0	0	0	0	0	0	0	0	0	0	0	142679	219384	0
1632916182128	-273.28	214.72	1068.232	117.11	-31.5	27.23	-360	153	-1926	0	0	0	0	0	0	0	0	0	0	0	0	0	0	0	0	0	0	142717	219460	0
1632916182138	188.368	-539.24	511.424	187.39	21	-74.97	-376.5	156	-1896	0	0	0	0	0	0	0	0	0	0	0	0	0	0	0	0	0	0	142748	219533	0
1632916182148	245.952	-387.472	1171.2	228.27	16.66	-102.97	-415.5	166.5	-1864.5	0	0	0	0	0	0	0	0	0	0	0	0	0	0	0	0	0	0	142777	219603	0
1632916182158	284.016	20.008	810.568	275.73	23.24	-109.41	-468	181.5	-1837.5	0	0	0	0	0	0	0	0	0	0	0	0	0	0	0	0	0	0	142792	219665	0
1632916182168	-99.064	-66.856	568.52	262.71	-13.58	-39.41	-525	199.5	-1810.5	0	0	0	0	0	0	0	0	0	0	0	0	0	0	0	0	0	0	142815	219724	0
1632916182178	-102.48	159.576	887.672	233.38	6.23	-64.47	-592.5	207	-1782	0	0	0	0	0	0	0	0	0	0	0	0	0	0	0	0	0	0	142835	219774	0
1632916182188	-82.472	-93.696	1966.64	149.03	-12.25	-30.03	-654	214.5	-1758	0	0	0	0	0	0	0	0	0	0	0	0	0	0	0	0	0	0	142872	219829	0
1632916182198	60.512	-1.952	844.24	-6.58	20.09	-32.76	-688.5	217.5	-1737	0	0	0	0	0	0	0	0	0	0	0	0	0	0	0	0	0	0	142888	219892	0
1632916182208	23.912	-140.544	1006.744	-13.37	-23.17	-1.33	-688.5	211.5	-1728	0	0	0	0	0	0	0	0	0	0	0	0	0	0	0	0	0	0	142917	219950	0
1632916182218	-151.28	-40.016	1084.336	2.8	1.75	5.46	-673.5	208.5	-1725	0	0	0	0	0	0	0	0	0	0	0	0	0	0	0	0	0	0	142921	219941	0
1632916182228	-95.16	15.616	1201.456	20.58	4.97	9.94	-666	202.5	-1723.5	0	0	0	0	0	0	0	0	0	0	0	0	0	0	0	0	0	0	142935	219979	0
1632916182238	-18.056	-73.688	906.216	2.94	1.75	12.39	-658.5	198	-1725	0	0	0	0	0	0	0	0	0	0	0	0	0	0	0	0	0	0	142940	219972	0
1632916182248	-3.416	-49.288	893.04	2.24	2.1	15.12	-651	187.5	-1722	0	0	0	0	0	0	0	0	0	0	0	0	0	0	0	0	0	0	142953	219979	0
1632916182258	-187.88	-109.8	1101.416	4.48	0.28	-7.07	-643.5	175.5	-1723.5	0	0	0	0	0	0	0	0	0	0	0	0	0	0	0	0	0	0	142963	219962	0
1632916182268	-113.216	-88.328	1063.84	1.89	-1.33	-14	-633	169.5	-1722	0	0	0	0	0	0	0	0	0	0	0	0	0	0	0	0	0	0	142970	219965	0
1632916182278	-66.856	-81.008	818.864	-3.08	-0.21	-22.54	-625.5	162	-1725	0	0	0	0	0	0	0	0	0	0	0	0	0	0	0	0	0	0	142939	219947	0
1632916182288	-62.464	-57.584	1023.824	0.98	0.84	-38.78	-619.5	162	-1723.5	0	0	0	0	0	0	0	0	0	0	0	0	0	0	0	0	0	0	142958	219977	0
1632916182298	-78.568	29.28	1111.176	3.22	1.68	-50.33	-615	157.5	-1722	0	0	0	0	0	0	0	0	0	0	0	0	0	0	0	0	0	0	142960	219990	0
1632916182308	-41.48	56.12	905.24	-0.98	-1.19	-73.71	-610.5	151.5	-1731	0	0	0	0	0	0	0	0	0	0	0	0	0	0	0	0	0	0	142999	220030	0
1632916182318	-98.088	125.904	1028.704	2.31	-1.33	-101.22	-607.5	156	-1737	0	0	0	0	0	0	0	0	0	0	0	0	0	0	0	0	0	0	143017	220082	0
1632916182328	-149.328	143.472	1122.4	3.01	-3.08	-124.6	-604.5	156	-1744.5	0	0	0	0	0	0	0	0	0	0	0	0	0	0	0	0	0	0	143046	220118	0
1632916182338	-54.656	115.656	966.728	0.63	0.56	-123.83	-601.5	157.5	-1743	0	0	0	0	0	0	0	0	0	0	0	0	0	0	0	0	0	0	143079	220160	0
1632916182348	-157.136	133.712	991.128	1.68	-3.01	-105.14	-601.5	166.5	-1741.5	0	0	0	0	0	0	0	0	0	0	0	0	0	0	0	0	0	0	143090	220187	0
1632916182358	-127.856	107.848	1060.424	0.07	0	-97.37	-598.5	171	-1741.5	0	0	0	0	0	0	0	0	0	0	0	0	0	0	0	0	0	0	143105	220208	0
1632916182368	-11.712	122	924.76	3.99	1.47	-83.44	-591	172.5	-1737	0	0	0	0	0	0	0	0	0	0	0	0	0	0	0	0	0	0	143101	220211	0
1632916182378	-71.248	151.28	830.576	6.44	0.21	-69.79	-586.5	180	-1732.5	0	0	0	0	0	0	0	0	0	0	0	0	0	0	0	0	0	0	143122	220212	0
1632916182388	78.568	3.416	1092.144	3.5	-1.89	-48.02	-583.5	187.5	-1734	0	0	0	0	0	0	0	0	0	0	0	0	0	0	0	0	0	0	143131	220213	0
1632916182398	-73.2	63.44	1132.16	1.61	-2.87	-38.92	-585	195	-1734	0	0	0	0	0	0	0	0	0	0	0	0	0	0	0	0	0	0	143143	220209	0
1632916182408	19.52	-106.872	1019.92	3.01	-0.42	-35.07	-580.5	202.5	-1725	0	0	0	0	0	0	0	0	0	0	0	0	0	0	0	0	0	0	143160	220192	0
1632916182418	-66.368	40.992	1090.192	-1.4	5.04	-30.45	-570	204	-1716	0	0	0	0	0	0	0	0	0	0	0	0	0	0	0	0	0	0	143151	220148	0
1632916182428	-70.76	-101.504	1116.544	-1.47	0.14	-28.21	-564	205.5	-1714.5	0	0	0	0	0	0	0	0	0	0	0	0	0	0	0	0	0	0	143169	220137	0
1632916182438	56.12	64.416	919.88	-3.36	-3.5	-32.06	-559.5	205.5	-1713	0	0	0	0	0	0	0	0	0	0	0	0	0	0	0	0	0	0	143170	220109	0
1632916182448	-56.608	9.76	1065.792	2.45	-0.98	-35.98	-552	204	-1707	0	0	0	0	0	0	0	0	0	0	0	0	0	0	0	0	0	0	143171	220083	0
1632916182458	-49.776	-4.392	1048.712	0.14	-2.03	-46.27	-541.5	202.5	-1704	0	0	0	0	0	0	0	0	0	0	0	0	0	0	0	0	0	0	143168	220082	0
1632916182468	-28.792	63.44	1003.816	0.84	-1.61	-52.57	-538.5	207	-1699.5	0	0	0	0	0	0	0	0	0	0	0	0	0	0	0	0	0	0	143168	220061	0
1632916182478	-59.536	-10.736	976.976	2.87	-0.56	-58.59	-541.5	214.5	-1699.5	0	0	0	0	0	0	0	0	0	0	0	0	0	0	0	0	0	0	143183	220086	0
1632916182488	63.44	19.52	895.968	3.43	-0.56	-62.02	-531	214.5	-1695	0	0	0	0	0	0	0	0	0	0	0	0	0	0	0	0	0	0	143216	220116	0
1632916182498	-100.04	-16.104	903.776	1.54	1.05	-61.32	-525	220.5	-1692	0	0	0	0	0	0	0	0	0	0	0	0	0	0	0	0	0	0	143243	220190	0
1632916182508	-184.952	-91.744	1075.064	2.52	2.8	-59.92	-526.5	228	-1686	0	0	0	0	0	0	0	0	0	0	0	0	0	0	0	0	0	0	143275	220228	0
1632916182518	33.672	-25.376	1035.048	2.59	-0.42	-52.08	-528	228	-1686	0	0	0	0	0	0	0	0	0	0	0	0	0	0	0	0	0	0	143332	220330	0
1632916182528	-63.928	-17.568	1015.528	0.07	-1.47	-41.86	-523.5	231	-1686	0	0	0	0	0	0	0	0	0	0	0	0	0	0	0	0	0	0	143378	220440	0
1632916182539	-79.544	-33.672	1186.816	3.22	-2.17	-31.71	-514.5	234	-1684.5	0	0	0	0	0	0	0	0	0	0	0	0	0	0	0	0	0	0	143414	220498	0
1632916182549	-61	-95.648	996.008	1.68	0.56	-23.59	-516	231	-1686	0	0	0	0	0	0	0	0	0	0	0	0	0	0	0	0	0	0	143428	220556	0
1632916182559	-61.488	15.616	992.592	-0.35	-1.33	-18.2	-511.5	231	-1689	0	0	0	0	0	0	0	0	0	0	0	0	0	0	0	0	0	0	143420	220580	0
1632916182569	-58.56	-90.28	1016.504	-0.91	1.54	-6.37	-505.5	235.5	-1687.5	0	0	0	0	0	0	0	0	0	0	0	0	0	0	0	0	0	0	143408	220598	0
1632916182579	-59.048	-9.76	1016.992	0.14	0.14	-5.88	-508.5	238.5	-1690.5	0	0	0	0	0	0	0	0	0	0	0	0	0	0	0	0	0	0	143380	220646	0
1632916182589	-65.88	-40.992	1037.488	0.35	0.21	-0.14	-505.5	237	-1692	0	0	0	0	0	0	0	0	0	0	0	0	0	0	0	0	0	0	143396	220667	0
1632916182599	-62.464	-29.768	1032.12	-0.56	0.14	-0.7	-504	238.5	-1689	0	0	0	0	0	0	0	0	0	0	0	0	0	0	0	0	0	0	143406	220693	0
1632916182609	-80.032	-34.16	1062.376	0.56	-1.47	-6.44	-501	234	-1689	0	0	0	0	0	0	0	0	0	0	0	0	0	0	0	0	0	0	143425	220725	0
1632916182619	-78.568	-21.472	1001.376	0.14	-0.84	-5.88	-499.5	234	-1693.5	0	0	0	0	0	0	0	0	0	0	0	0	0	0	0	0	0	0	143443	220750	0
1632916182629	-74.176	-13.664	997.96	0.63	-0.21	-10.64	-502.5	235.5	-1689	0	0	0	0	0	0	0	0	0	0	0	0	0	0	0	0	0	0	143460	220758	0
1632916182639	-39.528	12.688	1000.4	0.35	-0.56	-9.59	-504	229.5	-1686	0	0	0	0	0	0	0	0	0	0	0	0	0	0	0	0	0	0	143448	220763	0
1632916182649	-40.016	15.128	1002.352	0.84	-0.49	-7.98	-501	229.5	-1686	0	0	0	0	0	0	0	0	0	0	0	0	0	0	0	0	0	0	143449	220768	0
1632916182659	-44.408	13.664	997.96	0.56	-0.42	-6.79	-499.5	234	-1684.5	0	0	0	0	0	0	0	0	0	0	0	0	0	0	0	0	0	0	143464	220767	0
1632916182669	-52.216	10.248	1002.352	0.35	-0.28	-3.85	-502.5	234	-1686	0	0	0	0	0	0	0	0	0	0	0	0	0	0	0	0	0	0	143489	220776	0
1632916182679	-41.48	17.08	1004.792	0.28	-0.28	-1.47	-502.5	238.5	-1687.5	0	0	0	0	0	0	0	0	0	0	0	0	0	0	0	0	0	0	143481	220751	0
1632916182689	-41.48	8.296	1001.376	0.28	-0.35	-0.77	-502.5	241.5	-1689	0	0	0	0	0	0	0	0	0	0	0	0	0	0	0	0	0	0	143466	220705	0
1632916182699	-39.528	23.912	1001.864	0.21	-0.14	-0.63	-496.5	240	-1684.5	0	0	0	0	0	0	0	0	0	0	0	0	0	0	0	0	0	0	143450	220655	0
1632916182709	-40.504	12.688	1002.84	0.28	-0.28	-0.63	-498	237	-1686	0	0	0	0	0	0	0	0	0	0	0	0	0	0	0	0	0	0	143450	220622	0
1632916182719	-49.776	16.104	1001.376	0.14	-0.21	-0.63	-502.5	232.5	-1693.5	0	0	0	0	0	0	0	0	0	0	0	0	0	0	0	0	0	0	143442	220579	0
1632916182729	-36.112	12.688	1001.376	0.21	-0.21	-0.63	-501	234	-1692	0	0	0	0	0	0	0	0	0	0	0	0	0	0	0	0	0	0	143414	220531	0
1632916182739	-37.576	16.104	1000.4	0.14	-0.21	-0.63	-501	237	-1690.5	0	0	0	0	0	0	0	0	0	0	0	0	0	0	0	0	0	0	143421	220576	0
1632916182749	-37.576	16.592	998.448	0.49	-0.07	-0.63	-502.5	238.5	-1689	0	0	0	0	0	0	0	0	0	0	0	0	0	0	0	0	0	0	143426	220541	0
1632916182759	-37.576	15.616	1004.792	0.28	-0.28	-0.63	-502.5	240	-1689	0	0	0	0	0	0	0	0	0	0	0	0	0	0	0	0	0	0	143430	220540	0
1632916182769	-36.6	15.128	996.496	0.28	-0.35	-0.63	-501	238.5	-1689	0	0	0	0	0	0	0	0	0	0	0	0	0	0	0	0	0	0	143444	220537	0
1632916182779	-49.288	20.008	998.936	0.42	-0.42	-0.56	-502.5	238.5	-1696.5	0	0	0	0	0	0	0	0	0	0	0	0	0	0	0	0	0	0	143437	220530	0
1632916182789	-38.064	10.248	1002.84	0.42	-0.28	-0.63	-505.5	238.5	-1695	0	0	0	0	0	0	0	0	0	0	0	0	0	0	0	0	0	0	143446	220519	0
1632916182799	-40.016	18.544	1000.888	0.42	-0.35	-0.7	-504	243	-1692	0	0	0	0	0	0	0	0	0	0	0	0	0	0	0	0	0	0	143453	220523	0
1632916182809	-42.456	19.032	1001.376	0.28	-0.28	-0.63	-501	238.5	-1690.5	0	0	0	0	0	0	0	0	0	0	0	0	0	0	0	0	0	0	143435	220506	0
1632916182819	-47.336	15.128	1003.816	0.28	-0.28	-0.56	-505.5	234	-1696.5	0	0	0	0	0	0	0	0	0	0	0	0	0	0	0	0	0	0	143415	220480	0
1632916182829	-36.112	17.568	1002.84	0.28	-0.07	-0.7	-504	234	-1701	0	0	0	0	0	0	0	0	0	0	0	0	0	0	0	0	0	0	143397	220460	0
1632916182839	-31.72	15.128	1001.376	0.21	-0.28	-0.63	-501	235.5	-1692	0	0	0	0	0	0	0	0	0	0	0	0	0	0	0	0	0	0	143376	220399	0
1632916182849	-45.384	19.032	999.912	0.28	-0.21	-0.56	-504	240	-1686	0	0	0	0	0	0	0	0	0	0	0	0	0	0	0	0	0	0	143349	220359	0
1632916182859	-40.992	22.936	1000.888	0.21	-0.14	-0.7	-502.5	237	-1686	0	0	0	0	0	0	0	0	0	0	0	0	0	0	0	0	0	0	143324	220313	0
1632916182869	-32.696	15.128	1001.864	0.28	-0.21	-0.56	-498	240	-1689	0	0	0	0	0	0	0	0	0	0	0	0	0	0	0	0	0	0	143306	220252	0
1632916182879	-39.04	15.616	999.424	0.42	-0.28	-0.63	-499.5	238.5	-1693.5	0	0	0	0	0	0	0	0	0	0	0	0	0	0	0	0	0	0	143291	220216	0
1632916182889	-39.528	18.544	1001.864	0.28	-0.35	-0.56	-499.5	234	-1699.5	0	0	0	0	0	0	0	0	0	0	0	0	0	0	0	0	0	0	143282	220171	0
1632916182899	-34.648	12.2	1003.816	0.28	-0.28	-0.7	-498	238.5	-1698	0	0	0	0	0	0	0	0	0	0	0	0	0	0	0	0	0	0	143247	220143	0
1632916182909	-29.768	15.128	997.472	0.35	-0.28	-0.63	-498	237	-1693.5	0	0	0	0	0	0	0	0	0	0	0	0	0	0	0	0	0	0	143227	220105	0
1632916182919	-35.624	14.64	1001.376	0.35	-0.28	-0.63	-498	235.5	-1687.5	0	0	0	0	0	0	0	0	0	0	0	0	0	0	0	0	0	0	143183	220050	0
1632916182929	-41.968	14.64	999.424	0.28	-0.21	-0.56	-501	235.5	-1686	0	0	0	0	0	0	0	0	0	0	0	0	0	0	0	0	0	0	143171	220019	0
1632916182939	-38.552	12.688	995.032	0.21	-0.28	-0.63	-505.5	234	-1687.5	0	0	0	0	0	0	0	0	0	0	0	0	0	0	0	0	0	0	143199	220023	0
1632916182949	-36.112	18.056	999.424	0.28	-0.28	-0.56	-505.5	237	-1693.5	0	0	0	0	0	0	0	0	0	0	0	0	0	0	0	0	0	0	143189	220017	0
1632916182958	-39.04	13.664	1000.888	0.35	-0.28	-0.56	-501	241.5	-1696.5	0	0	0	0	0	0	0	0	0	0	0	0	0	0	0	0	0	0	143212	220039	0
1632916182968	-35.136	13.664	998.936	0.07	-0.28	-0.56	-499.5	240	-1690.5	0	0	0	0	0	0	0	0	0	0	0	0	0	0	0	0	0	0	143229	220089	0
1632916182978	-35.136	13.176	998.936	0.42	-0.14	-0.63	-501	234	-1689	0	0	0	0	0	0	0	0	0	0	0	0	0	0	0	0	0	0	143258	220148	0
1632916182988	-27.328	14.152	1000.4	0.21	-0.28	-0.63	-499.5	232.5	-1695	0	0	0	0	0	0	0	0	0	0	0	0	0	0	0	0	0	0	143281	220201	0
1632916182998	-33.184	16.104	1001.376	0.35	-0.42	-0.7	-504	238.5	-1696.5	0	0	0	0	0	0	0	0	0	0	0	0	0	0	0	0	0	0	143277	220216	0
1632916183008	-34.648	20.008	1003.816	0.28	-0.14	-0.56	-504	235.5	-1695	0	0	0	0	0	0	0	0	0	0	0	0	0	0	0	0	0	0	143294	220218	0
1632916183018	-40.504	23.424	1001.376	0.28	-0.28	-0.56	-499.5	237	-1692	0	0	0	0	0	0	0	0	0	0	0	0	0	0	0	0	0	0	143310	220250	0
1632916183028	-44.896	15.128	996.496	0.42	-0.35	-0.63	-498	241.5	-1687.5	0	0	0	0	0	0	0	0	0	0	0	0	0	0	0	0	0	0	143315	220293	0
1632916183038	-44.408	22.448	1003.328	0.21	-0.35	-0.56	-510	235.5	-1689	0	0	0	0	0	0	0	0	0	0	0	0	0	0	0	0	0	0	143323	220310	0
1632916183048	-36.6	22.448	999.912	0.28	-0.28	-0.63	-507	237	-1687.5	0	0	0	0	0	0	0	0	0	0	0	0	0	0	0	0	0	0	143309	220332	0
1632916183058	-38.064	7.808	996.008	0.21	-0.14	-0.7	-501	241.5	-1690.5	0	0	0	0	0	0	0	0	0	0	0	0	0	0	0	0	0	0	143310	220326	0
1632916183068	-41.48	20.008	1001.376	0.42	-0.21	-0.63	-499.5	243	-1692	0	0	0	0	0	0	0	0	0	0	0	0	0	0	0	0	0	0	143305	220293	0
1632916183078	-42.456	10.736	1000.4	0.21	-0.42	-0.63	-501	240	-1692	0	0	0	0	0	0	0	0	0	0	0	0	0	0	0	0	0	0	143293	220277	0
1632916183088	-32.696	9.272	1004.792	0.21	-0.35	-0.56	-501	237	-1695	0	0	0	0	0	0	0	0	0	0	0	0	0	0	0	0	0	0	143305	220274	0
1632916183098	-38.064	17.08	1006.744	0.63	-0.21	-0.56	-499.5	240	-1696.5	0	0	0	0	0	0	0	0	0	0	0	0	0	0	0	0	0	0	143303	220282	0
1632916183108	-37.576	18.544	1001.376	0.14	-0.49	-0.63	-501	241.5	-1693.5	0	0	0	0	0	0	0	0	0	0	0	0	0	0	0	0	0	0	143286	220241	0
1632916183118	-44.896	15.128	994.056	0.28	-0.14	-0.63	-502.5	240	-1683	0	0	0	0	0	0	0	0	0	0	0	0	0	0	0	0	0	0	143292	220247	0
1632916183128	-34.16	9.272	1001.864	0.35	-0.28	-0.56	-502.5	241.5	-1684.5	0	0	0	0	0	0	0	0	0	0	0	0	0	0	0	0	0	0	143288	220245	0
1632916183138	-47.824	11.224	998.936	0.21	-0.21	-0.63	-501	241.5	-1686	0	0	0	0	0	0	0	0	0	0	0	0	0	0	0	0	0	0	143314	220241	0
1632916183148	-35.624	10.248	1006.256	0.21	-0.28	-0.63	-505.5	241.5	-1693.5	0	0	0	0	0	0	0	0	0	0	0	0	0	0	0	0	0	0	143334	220217	0
1632916183158	-42.456	18.544	998.936	0.28	-0.28	-0.63	-504	240	-1693.5	0	0	0	0	0	0	0	0	0	0	0	0	0	0	0	0	0	0	143356	220229	0
1632916183168	-38.552	8.784	1000.4	0.28	-0.14	-0.63	-502.5	244.5	-1687.5	0	0	0	0	0	0	0	0	0	0	0	0	0	0	0	0	0	0	143381	220257	0
1632916183178	-32.208	16.592	995.52	0.28	-0.28	-0.63	-505.5	241.5	-1684.5	0	0	0	0	0	0	0	0	0	0	0	0	0	0	0	0	0	0	143396	220264	0
1632916183188	-37.088	21.96	995.52	0.49	-0.14	-0.63	-508.5	237	-1689	0	0	0	0	0	0	0	0	0	0	0	0	0	0	0	0	0	0	143406	220265	0
1632916183198	-32.696	16.104	1000.888	0.14	-0.28	-0.56	-505.5	237	-1689	0	0	0	0	0	0	0	0	0	0	0	0	0	0	0	0	0	0	143400	220272	0
1632916183208	-33.184	12.688	999.912	0.21	-0.35	-0.63	-504	240	-1692	0	0	0	0	0	0	0	0	0	0	0	0	0	0	0	0	0	0	143392	220271	0
1632916183218	-37.088	17.568	998.936	0.49	-0.28	-0.7	-505.5	240	-1693.5	0	0	0	0	0	0	0	0	0	0	0	0	0	0	0	0	0	0	143383	220300	0
1632916183228	-37.088	22.936	1007.232	0.28	-0.28	-0.63	-504	232.5	-1690.5	0	0	0	0	0	0	0	0	0	0	0	0	0	0	0	0	0	0	143392	220324	0
1632916183238	-43.432	23.912	1006.744	0.35	-0.21	-0.63	-501	234	-1692	0	0	0	0	0	0	0	0	0	0	0	0	0	0	0	0	0	0	143450	220456	0
1632916183248	-38.552	20.496	996.008	0.42	-0.42	-0.63	-501	235.5	-1689	0	0	0	0	0	0	0	0	0	0	0	0	0	0	0	0	0	0	143468	220495	0
1632916183258	-40.992	18.544	997.96	0.28	-0.14	-0.56	-501	235.5	-1690.5	0	0	0	0	0	0	0	0	0	0	0	0	0	0	0	0	0	0	143500	220561	0
1632916183268	-36.112	19.52	996.496	0.35	-0.21	-0.56	-499.5	237	-1693.5	0	0	0	0	0	0	0	0	0	0	0	0	0	0	0	0	0	0	143542	220617	0
1632916183278	-33.184	19.52	1001.376	0.42	-0.28	-0.56	-501	237	-1692	0	0	0	0	0	0	0	0	0	0	0	0	0	0	0	0	0	0	143573	220679	0
1632916183288	-35.624	8.296	1003.816	0.14	-0.28	-0.56	-501	234	-1693.5	0	0	0	0	0	0	0	0	0	0	0	0	0	0	0	0	0	0	143576	220703	0
1632916183298	-38.552	20.984	1003.328	0.28	-0.21	-0.56	-498	235.5	-1690.5	0	0	0	0	0	0	0	0	0	0	0	0	0	0	0	0	0	0	143579	220721	0
1632916183308	-38.064	11.224	1001.864	0.42	-0.28	-0.63	-493.5	235.5	-1695	0	0	0	0	0	0	0	0	0	0	0	0	0	0	0	0	0	0	143580	220735	0
1632916183318	-47.336	20.008	1005.28	0.21	-0.35	-0.63	-504	238.5	-1695	0	0	0	0	0	0	0	0	0	0	0	0	0	0	0	0	0	0	143587	220775	0
1632916183328	-47.824	17.08	999.912	0.49	-0.28	-0.63	-507	234	-1690.5	0	0	0	0	0	0	0	0	0	0	0	0	0	0	0	0	0	0	143607	220843	0
1632916183338	-42.944	18.056	1001.376	0.21	-0.42	-0.56	-502.5	231	-1686	0	0	0	0	0	0	0	0	0	0	0	0	0	0	0	0	0	0	143631	220898	0
1632916183348	-41.968	20.984	1005.768	0.28	-0.28	-0.49	-502.5	237	-1684.5	0	0	0	0	0	0	0	0	0	0	0	0	0	0	0	0	0	0	143650	220964	0
1632916183358	-39.04	10.248	998.448	0.28	-0.28	-0.49	-499.5	237	-1690.5	0	0	0	0	0	0	0	0	0	0	0	0	0	0	0	0	0	0	143648	220983	0
1632916183368	-29.768	19.52	1003.816	0.35	-0.28	-0.56	-504	232.5	-1689	0	0	0	0	0	0	0	0	0	0	0	0	0	0	0	0	0	0	143648	221016	0
1632916183379	-47.336	19.52	1004.792	0.28	-0.21	-0.7	-501	228	-1692	0	0	0	0	0	0	0	0	0	0	0	0	0	0	0	0	0	0	143656	221027	0
1632916183389	-31.72	18.056	1003.816	0.28	-0.21	-0.7	-501	235.5	-1693.5	0	0	0	0	0	0	0	0	0	0	0	0	0	0	0	0	0	0	143621	221066	0
1632916183399	-36.112	10.736	999.912	0.28	-0.28	-0.63	-501	240	-1690.5	0	0	0	0	0	0	0	0	0	0	0	0	0	0	0	0	0	0	143659	221041	0
1632916183409	-37.576	15.616	1000.888	0.49	-0.28	-0.63	-498	237	-1696.5	0	0	0	0	0	0	0	0	0	0	0	0	0	0	0	0	0	0	143679	221045	0
1632916183419	-43.432	14.64	1002.352	0.28	-0.35	-0.63	-499.5	234	-1695	0	0	0	0	0	0	0	0	0	0	0	0	0	0	0	0	0	0	143694	221059	0
1632916183429	-36.112	10.736	999.424	0.14	-0.42	-0.56	-501	241.5	-1695	0	0	0	0	0	0	0	0	0	0	0	0	0	0	0	0	0	0	143693	221063	0
1632916183439	-27.816	10.736	1008.696	0.63	-0.49	-0.63	-498	240	-1693.5	0	0	0	0	0	0	0	0	0	0	0	0	0	0	0	0	0	0	143683	221050	0
1632916183449	-54.168	19.032	1003.816	0.35	-0.42	-0.7	-501	241.5	-1696.5	0	0	0	0	0	0	0	0	0	0	0	0	0	0	0	0	0	0	143678	221056	0
1632916183459	-39.528	3.416	1016.016	0.42	-0.49	-0.7	-501	243	-1693.5	0	0	0	0	0	0	0	0	0	0	0	0	0	0	0	0	0	0	143697	221064	0
1632916183469	-30.256	1.952	1000.4	0.35	-0.49	-0.7	-504	240	-1693.5	0	0	0	0	0	0	0	0	0	0	0	0	0	0	0	0	0	0	143683	221111	0
1632916183479	-45.384	4.88	999.912	0.21	-0.21	-0.77	-508.5	232.5	-1692	0	0	0	0	0	0	0	0	0	0	0	0	0	0	0	0	0	0	143701	221128	0
1632916183489	-39.528	12.688	1003.328	0.21	-0.28	-0.77	-505.5	235.5	-1693.5	0	0	0	0	0	0	0	0	0	0	0	0	0	0	0	0	0	0	143697	221145	0
1632916183499	-38.064	16.104	1009.184	0.21	-0.28	-0.84	-504	238.5	-1693.5	0	0	0	0	0	0	0	0	0	0	0	0	0	0	0	0	0	0	143720	221169	0
1632916183509	-32.208	43.432	1000.888	0.21	-0.21	-0.63	-505.5	237	-1692	0	0	0	0	0	0	0	0	0	0	0	0	0	0	0	0	0	0	143723	221189	0
1632916183519	-33.672	49.288	997.472	0.35	-0.28	-0.49	-508.5	235.5	-1689	0	0	0	0	0	0	0	0	0	0	0	0	0	0	0	0	0	0	143735	221205	0
1632916183529	-45.384	37.088	1004.792	0.42	-0.35	-0.21	-505.5	229.5	-1693.5	0	0	0	0	0	0	0	0	0	0	0	0	0	0	0	0	0	0	143717	221213	0
1632916183539	-52.704	20.984	1002.84	0.21	-0.42	-0.42	-504	231	-1695	0	0	0	0	0	0	0	0	0	0	0	0	0	0	0	0	0	0	143709	221198	0
1632916183549	-10.736	20.008	1000.888	0.42	-0.28	-0.56	-507	235.5	-1693.5	0	0	0	0	0	0	0	0	0	0	0	0	0	0	0	0	0	0	143693	221211	0
1632916183559	-25.864	6.832	998.936	0.28	-0.35	-0.49	-505.5	234	-1692	0	0	0	0	0	0	0	0	0	0	0	0	0	0	0	0	0	0	143693	221222	0
1632916183569	-48.8	-9.76	1001.376	0.35	-0.28	-0.63	-501	234	-1692	0	0	0	0	0	0	0	0	0	0	0	0	0	0	0	0	0	0	143688	221231	0
1632916183579	-44.896	-2.44	1002.84	0.28	-0.21	-0.84	-499.5	234	-1690.5	0	0	0	0	0	0	0	0	0	0	0	0	0	0	0	0	0	0	143715	221231	0
1632916183589	-40.016	19.032	999.912	0.28	-0.28	-0.7	-505.5	234	-1692	0	0	0	0	0	0	0	0	0	0	0	0	0	0	0	0	0	0	143719	221243	0
1632916183599	-55.144	18.544	1006.744	0.28	-0.21	-0.63	-510	238.5	-1693.5	0	0	0	0	0	0	0	0	0	0	0	0	0	0	0	0	0	0	143712	221228	0
1632916183609	-59.048	22.936	1000.888	0.35	-0.21	-0.49	-507	237	-1693.5	0	0	0	0	0	0	0	0	0	0	0	0	0	0	0	0	0	0	143720	221224	0
1632916183619	-57.096	11.224	994.056	0.35	-0.49	-0.49	-504	234	-1690.5	0	0	0	0	0	0	0	0	0	0	0	0	0	0	0	0	0	0	143726	221238	0
1632916183629	-25.376	22.936	999.912	0.42	-0.21	-0.63	-501	237	-1689	0	0	0	0	0	0	0	0	0	0	0	0	0	0	0	0	0	0	143708	221233	0
1632916183639	-10.248	19.52	995.52	0.14	-0.21	-0.63	-499.5	235.5	-1689	0	0	0	0	0	0	0	0	0	0	0	0	0	0	0	0	0	0	143691	221201	0
1632916183649	-35.136	9.272	1000.4	0.28	-0.28	-0.56	-501	238.5	-1686	0	0	0	0	0	0	0	0	0	0	0	0	0	0	0	0	0	0	143676	221204	0
1632916183659	-31.232	21.472	996.984	0.28	-0.21	-0.7	-499.5	243	-1689	0	0	0	0	0	0	0	0	0	0	0	0	0	0	0	0	0	0	143677	221181	0
1632916183669	-30.256	21.96	998.936	0.21	-0.14	-0.77	-496.5	241.5	-1692	0	0	0	0	0	0	0	0	0	0	0	0	0	0	0	0	0	0	143677	221169	0
1632916183679	-58.072	16.592	1012.6	0.21	-0.14	-0.63	-498	235.5	-1690.5	0	0	0	0	0	0	0	0	0	0	0	0	0	0	0	0	0	0	143683	221174	0
1632916183689	-40.992	12.688	1018.456	0.35	-0.49	-0.63	-502.5	234	-1690.5	0	0	0	0	0	0	0	0	0	0	0	0	0	0	0	0	0	0	143689	221183	0
1632916183699	-39.528	8.784	1042.856	0.63	-1.33	-0.49	-504	234	-1684.5	0	0	0	0	0	0	0	0	0	0	0	0	0	0	0	0	0	0	143691	221176	0
1632916183709	-38.064	0.976	1002.84	0.56	-0.91	-0.49	-498	232.5	-1689	0	0	0	0	0	0	0	0	0	0	0	0	0	0	0	0	0	0	143685	221196	0
1632916183719	-37.088	15.128	1009.184	0.35	-0.56	-0.56	-499.5	234	-1692	0	0	0	0	0	0	0	0	0	0	0	0	0	0	0	0	0	0	143694	221205	0
1632916183729	-20.496	20.984	1010.16	0.49	-0.84	-0.7	-504	235.5	-1689	0	0	0	0	0	0	0	0	0	0	0	0	0	0	0	0	0	0	143671	221217	0
1632916183739	-24.4	22.448	996.984	0.49	-0.63	-0.63	-502.5	238.5	-1690.5	0	0	0	0	0	0	0	0	0	0	0	0	0	0	0	0	0	0	143664	221232	0
1632916183749	-44.896	37.576	991.128	0.21	-0.35	-0.63	-502.5	238.5	-1693.5	0	0	0	0	0	0	0	0	0	0	0	0	0	0	0	0	0	0	143658	221227	0
1632916183759	-51.24	26.84	995.52	0.21	0.14	-0.63	-499.5	237	-1696.5	0	0	0	0	0	0	0	0	0	0	0	0	0	0	0	0	0	0	143658	221235	0
1632916183769	-43.92	20.008	999.912	0.28	-0.21	-0.63	-501	238.5	-1695	0	0	0	0	0	0	0	0	0	0	0	0	0	0	0	0	0	0	143673	221224	0
1632916183779	-45.384	4.392	996.496	0.28	0	-0.49	-501	237	-1690.5	0	0	0	0	0	0	0	0	0	0	0	0	0	0	0	0	0	0	143664	221211	0
1632916183789	-52.704	3.904	1005.768	0.28	-0.21	-0.63	-504	237	-1689	0	0	0	0	0	0	0	0	0	0	0	0	0	0	0	0	0	0	143660	221217	0
1632916183799	-40.504	7.32	1004.304	0.35	-0.28	-0.63	-502.5	240	-1693.5	0	0	0	0	0	0	0	0	0	0	0	0	0	0	0	0	0	0	143644	221224	0
1632916183809	-30.256	92.72	996.984	0.49	-0.35	-0.63	-501	237	-1692	0	0	0	0	0	0	0	0	0	0	0	0	0	0	0	0	0	0	143630	221220	0
1632916183819	-35.136	0	925.736	-0.14	0.98	-0.77	-504	229.5	-1687.5	0	0	0	0	0	0	0	0	0	0	0	0	0	0	0	0	0	0	143610	221209	0
1632916183829	-92.232	43.92	986.248	0.07	1.19	-0.42	-504	234	-1689	0	0	0	0	0	0	0	0	0	0	0	0	0	0	0	0	0	0	143613	221185	0
1632916183839	-26.352	20.984	998.448	0.77	-0.91	-0.7	-505.5	243	-1693.5	0	0	0	0	0	0	0	0	0	0	0	0	0	0	0	0	0	0	143622	221198	0
1632916183849	-21.472	26.352	984.296	0	0.28	-0.7	-504	240	-1696.5	0	0	0	0	0	0	0	0	0	0	0	0	0	0	0	0	0	0	143614	221166	0
1632916183859	-38.064	27.816	999.912	0.28	0	-0.49	-501	237	-1692	0	0	0	0	0	0	0	0	0	0	0	0	0	0	0	0	0	0	143647	221150	0
1632916183869	-43.432	15.128	1011.136	0.56	-0.56	-0.56	-502.5	241.5	-1690.5	0	0	0	0	0	0	0	0	0	0	0	0	0	0	0	0	0	0	143667	221122	0
1632916183879	-11.224	11.712	1032.12	0.56	-1.47	-0.77	-501	243	-1692	0	0	0	0	0	0	0	0	0	0	0	0	0	0	0	0	0	0	143716	221130	0
1632916183889	-26.352	28.792	1016.016	0.56	-0.84	-0.56	-501	238.5	-1693.5	0	0	0	0	0	0	0	0	0	0	0	0	0	0	0	0	0	0	143711	221119	0
1632916183899	-34.16	26.84	1043.344	0.56	-1.4	-0.49	-504	235.5	-1687.5	0	0	0	0	0	0	0	0	0	0	0	0	0	0	0	0	0	0	143692	221116	0
1632916183909	-15.128	15.128	1068.232	0.91	-2.38	-0.49	-504	237	-1684.5	0	0	0	0	0	0	0	0	0	0	0	0	0	0	0	0	0	0	143681	221106	0
1632916183919	-40.016	15.128	996.984	0.49	-0.98	-0.49	-504	237	-1696.5	0	0	0	0	0	0	0	0	0	0	0	0	0	0	0	0	0	0	143675	221115	0
1632916183929	-36.112	16.592	1001.864	0.21	-0.21	-0.63	-505.5	238.5	-1698	0	0	0	0	0	0	0	0	0	0	0	0	0	0	0	0	0	0	143686	221134	0
1632916183939	-58.072	13.664	992.104	0.35	-0.14	-0.63	-504	243	-1690.5	0	0	0	0	0	0	0	0	0	0	0	0	0	0	0	0	0	0	143715	221156	0
1632916183949	-43.92	11.712	994.056	0.21	-0.07	-0.56	-502.5	238.5	-1692	0	0	0	0	0	0	0	0	0	0	0	0	0	0	0	0	0	0	143734	221181	0
1632916183959	-50.264	18.544	987.712	0.14	0.21	-0.63	-507	235.5	-1693.5	0	0	0	0	0	0	0	0	0	0	0	0	0	0	0	0	0	0	143758	221224	0
1632916183969	-35.624	18.544	995.032	0.21	0.42	-0.56	-507	237	-1689	0	0	0	0	0	0	0	0	0	0	0	0	0	0	0	0	0	0	143779	221258	0
1632916183979	-54.656	11.712	995.032	0.21	0.07	-0.7	-498	240	-1686	0	0	0	0	0	0	0	0	0	0	0	0	0	0	0	0	0	0	143796	221285	0
1632916183989	-35.136	11.224	997.96	0.14	0	-0.63	-495	238.5	-1689	0	0	0	0	0	0	0	0	0	0	0	0	0	0	0	0	0	0	143808	221336	0
1632916183999	-49.288	11.224	1002.84	0.35	-0.07	-0.49	-499.5	238.5	-1695	0	0	0	0	0	0	0	0	0	0	0	0	0	0	0	0	0	0	143819	221393	0
1632916184009	-48.312	6.832	1007.232	0.28	-0.14	-0.56	-504	234	-1696.5	0	0	0	0	0	0	0	0	0	0	0	0	0	0	0	0	0	0	143824	221434	0
1632916184019	-31.232	20.008	1004.792	0.35	-0.56	-0.7	-499.5	232.5	-1692	0	0	0	0	0	0	0	0	0	0	0	0	0	0	0	0	0	0	143835	221467	0
1632916184029	-35.136	17.08	1009.184	0.42	-0.56	-0.56	-498	237	-1695	0	0	0	0	0	0	0	0	0	0	0	0	0	0	0	0	0	0	143827	221480	0
1632916184039	-38.064	19.032	1008.208	0.42	-0.42	-0.63	-501	237	-1696.5	0	0	0	0	0	0	0	0	0	0	0	0	0	0	0	0	0	0	143824	221490	0
1632916184049	-36.6	17.568	1001.864	0.28	-0.42	-0.56	-504	235.5	-1695	0	0	0	0	0	0	0	0	0	0	0	0	0	0	0	0	0	0	143835	221512	0
1632916184059	-47.824	13.664	999.912	0.28	-0.21	-0.63	-510	234	-1690.5	0	0	0	0	0	0	0	0	0	0	0	0	0	0	0	0	0	0	143848	221516	0
1632916184069	-38.552	17.568	995.52	0.21	-0.14	-0.7	-510	238.5	-1693.5	0	0	0	0	0	0	0	0	0	0	0	0	0	0	0	0	0	0	143867	221526	0
1632916184079	-47.824	20.496	1003.816	0.28	-0.07	-0.63	-502.5	238.5	-1695	0	0	0	0	0	0	0	0	0	0	0	0	0	0	0	0	0	0	143896	221567	0
1632916184089	-41.968	15.128	996.496	0.42	-0.14	-0.7	-498	237	-1696.5	0	0	0	0	0	0	0	0	0	0	0	0	0	0	0	0	0	0	143930	221604	0
1632916184099	-41.968	20.008	994.056	0.21	0	-0.63	-501	237	-1695	0	0	0	0	0	0	0	0	0	0	0	0	0	0	0	0	0	0	143961	221644	0
1632916184109	-35.136	16.104	1002.84	0.35	-0.28	-0.63	-504	232.5	-1696.5	0	0	0	0	0	0	0	0	0	0	0	0	0	0	0	0	0	0	143979	221687	0
1632916184119	-48.312	15.128	994.056	0.35	-0.07	-0.63	-504	234	-1695	0	0	0	0	0	0	0	0	0	0	0	0	0	0	0	0	0	0	144009	221711	0
1632916184129	-31.232	11.224	1006.256	0.28	-0.28	-0.63	-505.5	238.5	-1692	0	0	0	0	0	0	0	0	0	0	0	0	0	0	0	0	0	0	143999	221734	0
1632916184139	-33.672	13.176	999.912	0.35	-0.42	-0.63	-499.5	238.5	-1686	0	0	0	0	0	0	0	0	0	0	0	0	0	0	0	0	0	0	143994	221749	0
1632916184149	-40.992	11.224	999.912	0.28	-0.14	-0.56	-498	240	-1686	0	0	0	0	0	0	0	0	0	0	0	0	0	0	0	0	0	0	143982	221760	0
1632916184159	-42.456	16.104	1000.4	0.35	-0.21	-0.56	-507	238.5	-1698	0	0	0	0	0	0	0	0	0	0	0	0	0	0	0	0	0	0	143987	221770	0
1632916184169	-37.088	15.616	997.96	0.28	-0.14	-0.56	-504	237	-1696.5	0	0	0	0	0	0	0	0	0	0	0	0	0	0	0	0	0	0	143969	221772	0
1632916184179	-45.872	10.736	1002.352	0.35	-0.35	-0.63	-493.5	237	-1687.5	0	0	0	0	0	0	0	0	0	0	0	0	0	0	0	0	0	0	143987	221758	0
1632916184189	-41.968	18.544	997.472	0.35	-0.14	-0.63	-496.5	234	-1689	0	0	0	0	0	0	0	0	0	0	0	0	0	0	0	0	0	0	143993	221776	0
1632916184199	-38.552	7.32	1002.84	0.21	-0.35	-0.63	-499.5	235.5	-1698	0	0	0	0	0	0	0	0	0	0	0	0	0	0	0	0	0	0	143993	221772	0
1632916184209	-37.576	13.664	995.032	0.35	-0.14	-0.56	-498	237	-1695	0	0	0	0	0	0	0	0	0	0	0	0	0	0	0	0	0	0	143987	221782	0
1632916184220	-37.576	15.128	1002.352	0.42	-0.07	-0.63	-504	238.5	-1690.5	0	0	0	0	0	0	0	0	0	0	0	0	0	0	0	0	0	0	143984	221765	0
1632916184230	-37.088	24.4	1000.4	0.28	-0.42	-0.56	-504	238.5	-1692	0	0	0	0	0	0	0	0	0	0	0	0	0	0	0	0	0	0	143992	221804	0
1632916184240	-43.432	13.176	1001.864	0.35	-0.21	-0.63	-504	240	-1692	0	0	0	0	0	0	0	0	0	0	0	0	0	0	0	0	0	0	143986	221824	0
1632916184250	-40.016	13.176	1003.328	0.21	-0.21	-0.56	-502.5	240	-1690.5	0	0	0	0	0	0	0	0	0	0	0	0	0	0	0	0	0	0	143996	221845	0
1632916184260	-44.408	12.688	1000.4	0.28	-0.14	-0.63	-502.5	240	-1695	0	0	0	0	0	0	0	0	0	0	0	0	0	0	0	0	0	0	143992	221858	0
1632916184270	-37.576	14.152	1003.816	0.28	-0.35	-0.63	-504	237	-1693.5	0	0	0	0	0	0	0	0	0	0	0	0	0	0	0	0	0	0	144009	221862	0
1632916184280	-36.6	20.496	1005.28	0.28	-0.42	-0.49	-505.5	235.5	-1690.5	0	0	0	0	0	0	0	0	0	0	0	0	0	0	0	0	0	0	144032	221892	0
1632916184290	-41.48	16.104	998.936	0.35	-0.28	-0.63	-498	235.5	-1689	0	0	0	0	0	0	0	0	0	0	0	0	0	0	0	0	0	0	144021	221900	0
1632916184300	-41.968	16.104	1002.352	0.28	-0.21	-0.56	-499.5	237	-1696.5	0	0	0	0	0	0	0	0	0	0	0	0	0	0	0	0	0	0	144040	221911	0
1632916184310	-34.648	17.568	1000.888	0.28	-0.35	-0.63	-504	240	-1698	0	0	0	0	0	0	0	0	0	0	0	0	0	0	0	0	0	0	144042	221907	0
1632916184320	-41.48	9.76	1003.816	0.28	-0.49	-0.56	-502.5	231	-1695	0	0	0	0	0	0	0	0	0	0	0	0	0	0	0	0	0	0	144041	221931	0
1632916184330	-36.112	22.936	1006.744	0.49	-0.28	-0.7	-504	231	-1692	0	0	0	0	0	0	0	0	0	0	0	0	0	0	0	0	0	0	144005	221969	0
1632916184340	-43.92	19.52	1000.888	0.21	-0.28	-0.63	-507	241.5	-1693.5	0	0	0	0	0	0	0	0	0	0	0	0	0	0	0	0	0	0	144034	221975	0
1632916184350	-44.408	19.52	1000.888	0.35	-0.42	-0.63	-504	237	-1696.5	0	0	0	0	0	0	0	0	0	0	0	0	0	0	0	0	0	0	144047	222010	0
1632916184360	-40.504	16.104	1003.328	0.28	-0.28	-0.63	-505.5	232.5	-1689	0	0	0	0	0	0	0	0	0	0	0	0	0	0	0	0	0	0	144050	222024	0
1632916184370	-38.064	17.568	1000.888	0.28	-0.14	-0.63	-508.5	237	-1689	0	0	0	0	0	0	0	0	0	0	0	0	0	0	0	0	0	0	144054	222013	0
1632916184380	-42.456	11.712	1001.864	0.21	-0.35	-0.56	-502.5	234	-1690.5	0	0	0	0	0	0	0	0	0	0	0	0	0	0	0	0	0	0	144054	222018	0
1632916184390	-39.04	17.568	998.448	0.35	-0.42	-0.7	-501	232.5	-1698	0	0	0	0	0	0	0	0	0	0	0	0	0	0	0	0	0	0	144058	222016	0
1632916184400	-38.064	25.864	1003.328	0.42	-0.35	-0.63	-504	237	-1692	0	0	0	0	0	0	0	0	0	0	0	0	0	0	0	0	0	0	144046	222002	0
1632916184410	-36.112	26.84	1005.768	0.35	-0.28	-0.56	-507	235.5	-1684.5	0	0	0	0	0	0	0	0	0	0	0	0	0	0	0	0	0	0	144043	222010	0
1632916184420	-40.992	14.152	1007.232	0.28	-0.14	-0.7	-504	234	-1692	0	0	0	0	0	0	0	0	0	0	0	0	0	0	0	0	0	0	144034	222000	0
1632916184430	-35.624	20.496	1004.304	0.28	-0.21	-0.63	-504	237	-1690.5	0	0	0	0	0	0	0	0	0	0	0	0	0	0	0	0	0	0	144004	222000	0
1632916184440	-37.088	7.808	1008.208	0.21	-0.35	-0.63	-504	238.5	-1689	0	0	0	0	0	0	0	0	0	0	0	0	0	0	0	0	0	0	144015	221998	0
1632916184450	-36.112	14.152	996.496	0.42	-0.28	-0.63	-501	235.5	-1692	0	0	0	0	0	0	0	0	0	0	0	0	0	0	0	0	0	0	144019	222016	0
1632916184460	-38.064	17.08	1004.792	0.35	-0.35	-0.56	-496.5	231	-1692	0	0	0	0	0	0	0	0	0	0	0	0	0	0	0	0	0	0	144025	222022	0
1632916184470	-47.824	14.64	998.936	0.21	-0.21	-0.63	-499.5	231	-1693.5	0	0	0	0	0	0	0	0	0	0	0	0	0	0	0	0	0	0	144020	222025	0
1632916184480	-40.504	20.496	1003.328	0.35	-0.28	-0.63	-504	234	-1690.5	0	0	0	0	0	0	0	0	0	0	0	0	0	0	0	0	0	0	144034	222020	0
1632916184490	-45.384	20.008	1005.28	0.35	-0.42	-0.63	-501	240	-1687.5	0	0	0	0	0	0	0	0	0	0	0	0	0	0	0	0	0	0	143996	222021	0
1632916184500	-37.576	8.784	998.936	0.28	-0.21	-0.49	-499.5	241.5	-1689	0	0	0	0	0	0	0	0	0	0	0	0	0	0	0	0	0	0	144011	222032	0
1632916184510	-38.552	12.688	1002.352	0.28	-0.28	-0.7	-498	240	-1690.5	0	0	0	0	0	0	0	0	0	0	0	0	0	0	0	0	0	0	144009	222045	0
1632916184520	-33.184	13.664	999.424	0.35	-0.28	-0.63	-498	240	-1692	0	0	0	0	0	0	0	0	0	0	0	0	0	0	0	0	0	0	144020	222048	0
1632916184530	-37.576	14.64	1001.376	0.28	-0.28	-0.56	-496.5	237	-1689	0	0	0	0	0	0	0	0	0	0	0	0	0	0	0	0	0	0	144033	222075	0
1632916184540	-37.576	14.64	1001.376	0.21	-0.28	-0.49	-490.5	235.5	-1693.5	0	0	0	0	0	0	0	0	0	0	0	0	0	0	0	0	0	0	143969	222085	0
1632916184550	-41.968	17.08	1001.864	0.35	-0.21	-0.56	-492	237	-1695	0	0	0	0	0	0	0	0	0	0	0	0	0	0	0	0	0	0	144001	222099	0
1632916184560	-34.16	13.664	1001.864	0.42	-0.35	-0.63	-504	240	-1699.5	0	0	0	0	0	0	0	0	0	0	0	0	0	0	0	0	0	0	144001	222099	0
1632916184570	-41.968	24.4	998.936	0.28	-0.28	-0.56	-507	234	-1696.5	0	0	0	0	0	0	0	0	0	0	0	0	0	0	0	0	0	0	143984	222089	0
1632916184580	-33.672	22.448	1002.352	0.28	-0.42	-0.63	-504	234	-1693.5	0	0	0	0	0	0	0	0	0	0	0	0	0	0	0	0	0	0	143988	222048	0
1632916184590	-44.896	17.08	1006.256	0.42	-0.35	-0.63	-502.5	237	-1687.5	0	0	0	0	0	0	0	0	0	0	0	0	0	0	0	0	0	0	143983	222032	0
1632916184600	-34.648	15.616	1001.376	0.21	-0.28	-0.49	-499.5	237	-1689	0	0	0	0	0	0	0	0	0	0	0	0	0	0	0	0	0	0	143988	222005	0
1632916184610	-36.6	14.152	1004.304	0.35	-0.35	-0.63	-502.5	237	-1692	0	0	0	0	0	0	0	0	0	0	0	0	0	0	0	0	0	0	143959	221996	0
1632916184620	-35.136	13.664	1001.376	0.28	-0.28	-0.56	-511.5	232.5	-1696.5	0	0	0	0	0	0	0	0	0	0	0	0	0	0	0	0	0	0	143991	221977	0
1632916184630	-47.824	12.2	1005.28	0.28	-0.28	-0.63	-505.5	229.5	-1690.5	0	0	0	0	0	0	0	0	0	0	0	0	0	0	0	0	0	0	143976	221966	0
1632916184640	-34.16	23.912	999.912	0.28	-0.21	-0.63	-502.5	237	-1689	0	0	0	0	0	0	0	0	0	0	0	0	0	0	0	0	0	0	143985	221988	0
1632916184650	-39.528	11.712	1001.864	0.35	-0.21	-0.63	-504	241.5	-1689	0	0	0	0	0	0	0	0	0	0	0	0	0	0	0	0	0	0	143979	221993	0
1632916184660	-36.6	17.08	1003.816	0.49	-0.28	-0.56	-501	240	-1690.5	0	0	0	0	0	0	0	0	0	0	0	0	0	0	0	0	0	0	143992	222000	0
1632916184670	-52.216	19.032	999.912	0.21	-0.35	-0.63	-504	243	-1689	0	0	0	0	0	0	0	0	0	0	0	0	0	0	0	0	0	0	143972	222037	0
1632916184680	-43.92	26.84	999.912	0.42	-0.28	-0.63	-504	241.5	-1687.5	0	0	0	0	0	0	0	0	0	0	0	0	0	0	0	0	0	0	143962	222036	0
1632916184690	-33.184	11.224	1006.256	0.35	-0.35	-0.56	-502.5	243	-1689	0	0	0	0	0	0	0	0	0	0	0	0	0	0	0	0	0	0	143974	222070	0
1632916184700	-38.064	11.712	995.032	0.28	-0.28	-0.56	-501	243	-1686	0	0	0	0	0	0	0	0	0	0	0	0	0	0	0	0	0	0	143974	222076	0
1632916184710	-45.384	17.568	1000.4	0.35	-0.28	-0.63	-501	237	-1690.5	0	0	0	0	0	0	0	0	0	0	0	0	0	0	0	0	0	0	143989	222098	0
1632916184720	-40.504	18.056	1001.864	0.21	-0.21	-0.56	-501	231	-1693.5	0	0	0	0	0	0	0	0	0	0	0	0	0	0	0	0	0	0	143984	222122	0
1632916184730	-40.504	16.592	1001.864	0.35	-0.28	-0.56	-504	235.5	-1695	0	0	0	0	0	0	0	0	0	0	0	0	0	0	0	0	0	0	144002	222150	0
1632916184740	-38.552	16.592	999.424	0.21	-0.28	-0.63	-502.5	240	-1698	0	0	0	0	0	0	0	0	0	0	0	0	0	0	0	0	0	0	144022	222161	0
1632916184750	-47.336	18.056	1002.352	0.28	-0.21	-0.63	-504	241.5	-1698	0	0	0	0	0	0	0	0	0	0	0	0	0	0	0	0	0	0	143967	222187	0
1632916184760	-36.112	22.936	1000.888	0.35	-0.28	-0.63	-505.5	240	-1692	0	0	0	0	0	0	0	0	0	0	0	0	0	0	0	0	0	0	144020	222206	0
1632916184770	-33.672	6.832	1002.352	0.21	-0.42	-0.63	-498	237	-1690.5	0	0	0	0	0	0	0	0	0	0	0	0	0	0	0	0	0	0	144015	222227	0
1632916184780	-30.256	16.592	1002.84	0.49	-0.28	-0.63	-499.5	240	-1692	0	0	0	0	0	0	0	0	0	0	0	0	0	0	0	0	0	0	144026	222245	0
1632916184790	-36.112	10.248	1004.304	0.28	-0.14	-0.7	-501	240	-1686	0	0	0	0	0	0	0	0	0	0	0	0	0	0	0	0	0	0	144023	222248	0
1632916184800	-37.088	24.4	1004.792	0.28	-0.35	-0.63	-507	241.5	-1689	0	0	0	0	0	0	0	0	0	0	0	0	0	0	0	0	0	0	144032	222266	0
1632916184810	-39.528	15.128	996.008	0.28	-0.14	-0.63	-507	241.5	-1687.5	0	0	0	0	0	0	0	0	0	0	0	0	0	0	0	0	0	0	144043	222270	0
1632916184820	-41.48	21.472	1004.304	0.28	-0.35	-0.56	-504	241.5	-1692	0	0	0	0	0	0	0	0	0	0	0	0	0	0	0	0	0	0	144044	222302	0
1632916184830	-45.872	13.176	1000.888	0.21	-0.14	-0.49	-505.5	241.5	-1693.5	0	0	0	0	0	0	0	0	0	0	0	0	0	0	0	0	0	0	144046	222329	0
1632916184840	-41.48	9.272	1006.256	0.42	-0.21	-0.56	-502.5	237	-1692	0	0	0	0	0	0	0	0	0	0	0	0	0	0	0	0	0	0	144047	222311	0
1632916184850	-36.112	17.08	999.912	0.28	-0.14	-0.7	-504	238.5	-1692	0	0	0	0	0	0	0	0	0	0	0	0	0	0	0	0	0	0	144060	222322	0
1632916184860	-36.6	14.64	1000.4	0.28	-0.28	-0.63	-501	235.5	-1689	0	0	0	0	0	0	0	0	0	0	0	0	0	0	0	0	0	0	144055	222321	0
1632916184870	-40.504	21.472	1000.4	0.42	-0.14	-0.56	-496.5	235.5	-1689	0	0	0	0	0	0	0	0	0	0	0	0	0	0	0	0	0	0	144049	222324	0
1632916184880	-35.136	23.424	996.496	0.49	-0.28	-0.63	-498	241.5	-1689	0	0	0	0	0	0	0	0	0	0	0	0	0	0	0	0	0	0	144053	222320	0
1632916184890	-35.624	18.056	1003.816	0.14	-0.42	-0.49	-501	240	-1690.5	0	0	0	0	0	0	0	0	0	0	0	0	0	0	0	0	0	0	144057	222334	0
1632916184900	-40.016	16.592	996.496	0.28	-0.28	-0.56	-504	234	-1692	0	0	0	0	0	0	0	0	0	0	0	0	0	0	0	0	0	0	144062	222342	0
1632916184910	-35.624	17.08	1003.816	0.28	-0.42	-0.63	-501	237	-1684.5	0	0	0	0	0	0	0	0	0	0	0	0	0	0	0	0	0	0	144079	222374	0
1632916184920	-36.112	10.736	1000.4	0.35	-0.35	-0.63	-504	241.5	-1689	0	0	0	0	0	0	0	0	0	0	0	0	0	0	0	0	0	0	144089	222361	0
1632916184930	-44.408	19.032	1001.376	0.35	-0.14	-0.49	-502.5	234	-1693.5	0	0	0	0	0	0	0	0	0	0	0	0	0	0	0	0	0	0	144090	222376	0
1632916184940	-42.456	11.712	999.912	0.21	-0.35	-0.63	-498	231	-1690.5	0	0	0	0	0	0	0	0	0	0	0	0	0	0	0	0	0	0	144090	222383	0
1632916184950	-33.184	19.52	995.032	0.35	-0.21	-0.63	-501	235.5	-1693.5	0	0	0	0	0	0	0	0	0	0	0	0	0	0	0	0	0	0	144092	222407	0
1632916184960	-43.432	18.056	1004.304	0.35	-0.21	-0.63	-505.5	238.5	-1690.5	0	0	0	0	0	0	0	0	0	0	0	0	0	0	0	0	0	0	144048	222422	0
1632916184970	-42.944	15.616	994.544	0.42	-0.21	-0.7	-505.5	235.5	-1689	0	0	0	0	0	0	0	0	0	0	0	0	0	0	0	0	0	0	144080	222436	0
1632916184980	-36.112	22.448	996.496	0.35	-0.21	-0.63	-507	232.5	-1692	0	0	0	0	0	0	0	0	0	0	0	0	0	0	0	0	0	0	144095	222454	0
1632916184990	-26.84	9.272	996.008	0.21	-0.42	-0.63	-499.5	231	-1690.5	0	0	0	0	0	0	0	0	0	0	0	0	0	0	0	0	0	0	144107	222480	0
1632916185000	-42.456	17.08	1004.792	0.56	-0.28	-0.56	-501	240	-1690.5	0	0	0	0	0	0	0	0	0	0	0	0	0	0	0	0	0	0	144122	222495	0
1632916185010	-40.992	20.496	998.448	0.21	-0.42	-0.63	-507	241.5	-1687.5	0	0	0	0	0	0	0	0	0	0	0	0	0	0	0	0	0	0	144119	222505	0
1632916185020	-48.8	26.352	1000.4	0.35	-0.14	-0.63	-505.5	237	-1687.5	0	0	0	0	0	0	0	0	0	0	0	0	0	0	0	0	0	0	144128	222500	0
1632916185030	-37.088	18.056	1006.256	0.35	-0.35	-0.63	-505.5	234	-1687.5	0	0	0	0	0	0	0	0	0	0	0	0	0	0	0	0	0	0	144110	222532	0
1632916185040	-40.992	26.352	994.544	0.35	-0.14	-0.63	-502.5	232.5	-1689	0	0	0	0	0	0	0	0	0	0	0	0	0	0	0	0	0	0	144131	222545	0
1632916185050	-37.576	23.424	1003.816	0.35	-0.42	-0.63	-498	237	-1689	0	0	0	0	0	0	0	0	0	0	0	0	0	0	0	0	0	0	144131	222553	0
1632916185061	-36.6	8.784	1000.888	0.35	-0.35	-0.63	-502.5	237	-1692	0	0	0	0	0	0	0	0	0	0	0	0	0	0	0	0	0	0	144147	222563	0
1632916185071	-36.6	18.056	1002.352	0.35	-0.07	-0.49	-508.5	238.5	-1699.5	0	0	0	0	0	0	0	0	0	0	0	0	0	0	0	0	0	0	144168	222586	0
1632916185081	-36.112	17.08	998.448	0.35	-0.07	-0.63	-502.5	234	-1693.5	0	0	0	0	0	0	0	0	0	0	0	0	0	0	0	0	0	0	144194	222602	0
1632916185091	-42.456	15.616	996.984	0.21	-0.28	-0.63	-501	235.5	-1692	0	0	0	0	0	0	0	0	0	0	0	0	0	0	0	0	0	0	144190	222623	0
1632916185101	-43.432	17.568	997.472	0.56	-0.14	-0.7	-501	240	-1692	0	0	0	0	0	0	0	0	0	0	0	0	0	0	0	0	0	0	144180	222646	0
1632916185111	-39.04	13.176	1000.4	0.14	-0.21	-0.56	-499.5	241.5	-1690.5	0	0	0	0	0	0	0	0	0	0	0	0	0	0	0	0	0	0	144179	222642	0
1632916185121	-32.208	19.032	1003.816	0.35	-0.35	-0.7	-501	243	-1692	0	0	0	0	0	0	0	0	0	0	0	0	0	0	0	0	0	0	144175	222640	0
1632916185131	-36.112	16.592	1001.864	0.42	-0.28	-0.56	-501	240	-1696.5	0	0	0	0	0	0	0	0	0	0	0	0	0	0	0	0	0	0	144174	222648	0
1632916185141	-31.72	23.424	1003.816	0.28	-0.28	-0.63	-501	237	-1693.5	0	0	0	0	0	0	0	0	0	0	0	0	0	0	0	0	0	0	144196	222676	0
1632916185151	-36.6	12.688	1000.4	0.35	-0.28	-0.56	-498	234	-1696.5	0	0	0	0	0	0	0	0	0	0	0	0	0	0	0	0	0	0	144201	222680	0
1632916185161	-37.576	14.152	1006.256	0.28	-0.21	-0.63	-504	234	-1696.5	0	0	0	0	0	0	0	0	0	0	0	0	0	0	0	0	0	0	144213	222689	0
1632916185171	-30.744	21.96	1003.816	0.28	-0.42	-0.63	-510	231	-1690.5	0	0	0	0	0	0	0	0	0	0	0	0	0	0	0	0	0	0	144222	222732	0
1632916185181	-40.504	18.056	998.936	0.28	-0.14	-0.63	-502.5	235.5	-1693.5	0	0	0	0	0	0	0	0	0	0	0	0	0	0	0	0	0	0	144237	222718	0
1632916185191	-39.528	16.592	1001.864	0.21	-0.28	-0.7	-498	241.5	-1695	0	0	0	0	0	0	0	0	0	0	0	0	0	0	0	0	0	0	144237	222725	0
1632916185201	-42.944	15.128	999.424	0.35	-0.35	-0.56	-495	237	-1695	0	0	0	0	0	0	0	0	0	0	0	0	0	0	0	0	0	0	144245	222748	0
1632916185211	-27.816	17.568	999.424	0.56	-0.14	-0.7	-499.5	234	-1690.5	0	0	0	0	0	0	0	0	0	0	0	0	0	0	0	0	0	0	144257	222761	0
1632916185221	-47.336	18.544	1003.328	-0.07	-0.21	-0.56	-501	237	-1689	0	0	0	0	0	0	0	0	0	0	0	0	0	0	0	0	0	0	144247	222788	0
1632916185231	-39.528	17.568	993.08	0.42	-0.14	-0.56	-496.5	240	-1686	0	0	0	0	0	0	0	0	0	0	0	0	0	0	0	0	0	0	144255	222815	0
1632916185241	-47.336	20.008	998.448	0.35	-0.21	-0.63	-495	237	-1692	0	0	0	0	0	0	0	0	0	0	0	0	0	0	0	0	0	0	144265	222825	0
1632916185251	-32.696	13.176	1001.864	0.28	-0.28	-0.7	-493.5	234	-1692	0	0	0	0	0	0	0	0	0	0	0	0	0	0	0	0	0	0	144261	222853	0
1632916185261	-41.48	19.52	1000.888	0.35	-0.21	-0.7	-495	238.5	-1695	0	0	0	0	0	0	0	0	0	0	0	0	0	0	0	0	0	0	144256	222858	0
1632916185271	-44.408	15.616	1002.84	0.21	-0.21	-0.56	-498	241.5	-1695	0	0	0	0	0	0	0	0	0	0	0	0	0	0	0	0	0	0	144261	222866	0
1632916185281	-39.04	17.08	1000.4	0.21	-0.14	-0.63	-498	238.5	-1692	0	0	0	0	0	0	0	0	0	0	0	0	0	0	0	0	0	0	144270	222897	0
1632916185291	-42.456	14.64	1000.4	0.35	-0.28	-0.63	-498	240	-1693.5	0	0	0	0	0	0	0	0	0	0	0	0	0	0	0	0	0	0	144278	222914	0
1632916185301	-36.6	16.104	998.448	0.35	-0.28	-0.63	-499.5	241.5	-1696.5	0	0	0	0	0	0	0	0	0	0	0	0	0	0	0	0	0	0	144283	222897	0
1632916185311	-34.648	15.616	1002.352	0.28	-0.28	-0.7	-502.5	238.5	-1698	0	0	0	0	0	0	0	0	0	0	0	0	0	0	0	0	0	0	144280	222882	0
1632916185321	-35.624	14.152	1004.304	0.63	-0.07	-0.7	-508.5	237	-1693.5	0	0	0	0	0	0	0	0	0	0	0	0	0	0	0	0	0	0	144286	222856	0
1632916185331	-7.808	25.376	934.52	0.07	0.14	-0.63	-507	234	-1692	0	0	0	0	0	0	0	0	0	0	0	0	0	0	0	0	0	0	144281	222839	0
1632916185341	-225.456	-2.928	1062.864	-1.33	4.76	-0.98	-501	235.5	-1693.5	0	0	0	0	0	0	0	0	0	0	0	0	0	0	0	0	0	0	144272	222820	0
1632916185351	-17.08	135.176	959.896	0.91	-0.35	-0.84	-498	235.5	-1690.5	0	0	0	0	0	0	0	0	0	0	0	0	0	0	0	0	0	0	144268	222780	0
1632916185361	-21.472	17.08	989.176	0.28	-0.84	-0.63	-496.5	241.5	-1689	0	0	0	0	0	0	0	0	0	0	0	0	0	0	0	0	0	0	144279	222778	0
1632916185371	-30.744	21.472	998.936	0.21	-0.07	-0.63	-499.5	238.5	-1686	0	0	0	0	0	0	0	0	0	0	0	0	0	0	0	0	0	0	144264	222773	0
1632916185381	-51.24	-0.976	1017.968	-0.07	0.14	-0.77	-502.5	240	-1687.5	0	0	0	0	0	0	0	0	0	0	0	0	0	0	0	0	0	0	144342	222814	0
1632916185391	-64.904	26.352	1010.16	0.21	-0.14	-0.56	-499.5	238.5	-1689	0	0	0	0	0	0	0	0	0	0	0	0	0	0	0	0	0	0	144284	222816	0
1632916185401	-9.76	19.032	1009.672	0.42	-0.98	-0.63	-499.5	237	-1693.5	0	0	0	0	0	0	0	0	0	0	0	0	0	0	0	0	0	0	144310	222775	0
1632916185411	-58.072	29.768	989.176	0.21	0.28	-0.63	-502.5	234	-1690.5	0	0	0	0	0	0	0	0	0	0	0	0	0	0	0	0	0	0	144326	222844	0
1632916185421	-29.28	22.448	992.104	0.42	-0.56	-0.63	-502.5	234	-1693.5	0	0	0	0	0	0	0	0	0	0	0	0	0	0	0	0	0	0	144331	222893	0
1632916185431	-36.6	4.88	1004.792	0.35	-0.49	-0.56	-499.5	243	-1689	0	0	0	0	0	0	0	0	0	0	0	0	0	0	0	0	0	0	144337	222913	0
1632916185441	-50.264	13.176	996.008	0.35	0.07	-0.56	-502.5	238.5	-1689	0	0	0	0	0	0	0	0	0	0	0	0	0	0	0	0	0	0	144353	222958	0
1632916185451	-40.016	29.28	989.664	0.35	-0.35	-0.63	-498	231	-1687.5	0	0	0	0	0	0	0	0	0	0	0	0	0	0	0	0	0	0	144363	223030	0
1632916185461	-41.48	6.832	998.936	0.42	-0.14	-0.63	-498	237	-1690.5	0	0	0	0	0	0	0	0	0	0	0	0	0	0	0	0	0	0	144408	223103	0
1632916185471	-40.016	5.856	1005.768	0.21	-0.14	-0.63	-501	237	-1695	0	0	0	0	0	0	0	0	0	0	0	0	0	0	0	0	0	0	144457	223209	0
1632916185481	-48.8	22.936	999.424	0.28	0.07	-0.63	-507	235.5	-1698	0	0	0	0	0	0	0	0	0	0	0	0	0	0	0	0	0	0	144519	223319	0
1632916185491	-39.528	26.352	1000.4	0.35	-0.28	-0.56	-501	240	-1692	0	0	0	0	0	0	0	0	0	0	0	0	0	0	0	0	0	0	144575	223402	0
1632916185501	-41.968	19.032	1003.328	0.28	-0.21	-0.7	-498	241.5	-1690.5	0	0	0	0	0	0	0	0	0	0	0	0	0	0	0	0	0	0	144605	223496	0
1632916185511	-39.528	10.736	999.424	0.28	-0.35	-0.56	-502.5	238.5	-1696.5	0	0	0	0	0	0	0	0	0	0	0	0	0	0	0	0	0	0	144631	223544	0
1632916185521	-39.04	17.568	1005.28	0.35	-0.35	-0.56	-505.5	238.5	-1695	0	0	0	0	0	0	0	0	0	0	0	0	0	0	0	0	0	0	144663	223603	0
1632916185531	-44.896	10.736	997.96	0.28	-0.35	-0.63	-507	235.5	-1692	0	0	0	0	0	0	0	0	0	0	0	0	0	0	0	0	0	0	144660	223642	0
1632916185541	-35.624	19.032	1002.84	0.56	-0.35	-0.56	-502.5	231	-1695	0	0	0	0	0	0	0	0	0	0	0	0	0	0	0	0	0	0	144702	223659	0
1632916185551	-55.144	17.568	1007.232	0.14	-0.28	-0.7	-502.5	241.5	-1693.5	0	0	0	0	0	0	0	0	0	0	0	0	0	0	0	0	0	0	144734	223654	0
1632916185561	-39.04	17.08	998.936	0.35	-0.35	-0.56	-501	243	-1690.5	0	0	0	0	0	0	0	0	0	0	0	0	0	0	0	0	0	0	144730	223676	0
1632916185571	-44.408	16.592	1003.328	0.21	-0.14	-0.63	-501	240	-1690.5	0	0	0	0	0	0	0	0	0	0	0	0	0	0	0	0	0	0	144724	223672	0
1632916185581	-40.504	16.592	998.936	0.28	-0.21	-0.63	-498	238.5	-1690.5	0	0	0	0	0	0	0	0	0	0	0	0	0	0	0	0	0	0	144729	223672	0
1632916185591	-31.72	17.08	1009.184	0.35	-0.35	-0.63	-502.5	237	-1690.5	0	0	0	0	0	0	0	0	0	0	0	0	0	0	0	0	0	0	144780	223637	0
1632916185601	-46.36	20.008	999.912	0.28	-0.14	-0.63	-502.5	235.5	-1689	0	0	0	0	0	0	0	0	0	0	0	0	0	0	0	0	0	0	144718	223657	0
1632916185611	-36.6	16.104	997.96	0.42	-0.28	-0.7	-501	234	-1692	0	0	0	0	0	0	0	0	0	0	0	0	0	0	0	0	0	0	144730	223661	0
1632916185621	-38.064	12.688	1002.84	0.28	-0.28	-0.63	-504	234	-1696.5	0	0	0	0	0	0	0	0	0	0	0	0	0	0	0	0	0	0	144743	223661	0
1632916185631	-36.112	10.736	997.472	0.35	-0.35	-0.63	-499.5	238.5	-1695	0	0	0	0	0	0	0	0	0	0	0	0	0	0	0	0	0	0	144746	223655	0
1632916185641	-43.92	15.128	1006.744	0.28	-0.35	-0.63	-496.5	235.5	-1693.5	0	0	0	0	0	0	0	0	0	0	0	0	0	0	0	0	0	0	144766	223676	0
1632916185651	-41.48	19.032	1002.84	0.42	-0.35	-0.63	-498	232.5	-1693.5	0	0	0	0	0	0	0	0	0	0	0	0	0	0	0	0	0	0	144745	223653	0
1632916185661	-35.136	23.424	999.424	0.21	-0.28	-0.56	-502.5	235.5	-1689	0	0	0	0	0	0	0	0	0	0	0	0	0	0	0	0	0	0	144739	223661	0
1632916185671	-39.04	14.64	1004.792	0.49	-0.35	-0.63	-502.5	237	-1686	0	0	0	0	0	0	0	0	0	0	0	0	0	0	0	0	0	0	144729	223676	0
1632916185681	-43.92	21.96	999.424	0.21	-0.21	-0.56	-496.5	240	-1689	0	0	0	0	0	0	0	0	0	0	0	0	0	0	0	0	0	0	144749	223682	0
1632916185691	-40.992	20.984	999.424	0.35	-0.35	-0.7	-498	238.5	-1693.5	0	0	0	0	0	0	0	0	0	0	0	0	0	0	0	0	0	0	144756	223692	0
1632916185701	-21.472	16.592	989.176	0.28	-0.35	-0.77	-501	237	-1693.5	0	0	0	0	0	0	0	0	0	0	0	0	0	0	0	0	0	0	144788	223693	0
1632916185711	-40.504	18.056	989.664	0.14	0.35	-0.77	-502.5	243	-1690.5	0	0	0	0	0	0	0	0	0	0	0	0	0	0	0	0	0	0	144797	223719	0
1632916185721	-34.648	26.352	1003.328	0.14	0	-0.7	-504	240	-1690.5	0	0	0	0	0	0	0	0	0	0	0	0	0	0	0	0	0	0	144796	223722	0
1632916185731	-43.432	13.176	1006.256	0.28	-0.28	-0.56	-502.5	235.5	-1687.5	0	0	0	0	0	0	0	0	0	0	0	0	0	0	0	0	0	0	144798	223717	0
1632916185741	-34.648	19.52	1013.576	0.42	-0.63	-0.63	-499.5	232.5	-1692	0	0	0	0	0	0	0	0	0	0	0	0	0	0	0	0	0	0	144790	223718	0
1632916185751	-49.288	13.664	996.496	0.35	-0.21	-0.56	-501	235.5	-1693.5	0	0	0	0	0	0	0	0	0	0	0	0	0	0	0	0	0	0	144800	223728	0
1632916185761	-37.576	20.496	1002.84	0.42	-0.28	-0.63	-505.5	237	-1693.5	0	0	0	0	0	0	0	0	0	0	0	0	0	0	0	0	0	0	144817	223756	0
1632916185771	-30.744	12.2	1003.328	0.14	-0.42	-0.63	-505.5	234	-1690.5	0	0	0	0	0	0	0	0	0	0	0	0	0	0	0	0	0	0	144830	223780	0
1632916185781	-42.944	14.64	1001.376	0.56	-0.21	-0.63	-501	237	-1695	0	0	0	0	0	0	0	0	0	0	0	0	0	0	0	0	0	0	144846	223799	0
1632916185791	-51.24	23.912	1001.864	0.14	-0.21	-0.63	-495	238.5	-1696.5	0	0	0	0	0	0	0	0	0	0	0	0	0	0	0	0	0	0	144853	223829	0
1632916185801	-43.92	12.688	995.52	0.28	-0.14	-0.63	-499.5	238.5	-1692	0	0	0	0	0	0	0	0	0	0	0	0	0	0	0	0	0	0	144931	223777	0
1632916185811	-35.136	12.688	1000.4	0.35	-0.14	-0.63	-504	241.5	-1690.5	0	0	0	0	0	0	0	0	0	0	0	0	0	0	0	0	0	0	144870	223867	0
1632916185821	-43.92	13.176	998.448	0.28	-0.21	-0.56	-498	237	-1689	0	0	0	0	0	0	0	0	0	0	0	0	0	0	0	0	0	0	144858	223863	0
1632916185831	-33.672	14.152	1004.792	0.35	-0.28	-0.63	-498	234	-1689	0	0	0	0	0	0	0	0	0	0	0	0	0	0	0	0	0	0	144858	223892	0
1632916185841	-43.92	21.472	1004.304	0.35	-0.35	-0.63	-504	234	-1692	0	0	0	0	0	0	0	0	0	0	0	0	0	0	0	0	0	0	144861	223911	0
1632916185851	-38.064	14.152	1003.328	0.28	-0.21	-0.56	-504	235.5	-1693.5	0	0	0	0	0	0	0	0	0	0	0	0	0	0	0	0	0	0	144864	223933	0
1632916185861	-38.064	18.544	1001.864	0.35	-0.28	-0.56	-502.5	238.5	-1695	0	0	0	0	0	0	0	0	0	0	0	0	0	0	0	0	0	0	144879	223967	0
1632916185871	-27.816	16.104	1004.304	0.28	-0.35	-0.63	-502.5	235.5	-1693.5	0	0	0	0	0	0	0	0	0	0	0	0	0	0	0	0	0	0	144887	223969	0
1632916185881	-39.528	15.128	1011.136	0.21	-0.49	-0.56	-508.5	235.5	-1695	0	0	0	0	0	0	0	0	0	0	0	0	0	0	0	0	0	0	144880	223992	0
1632916185891	-43.92	9.76	996.008	0.35	-0.14	-0.56	-510	237	-1696.5	0	0	0	0	0	0	0	0	0	0	0	0	0	0	0	0	0	0	144878	224021	0
1632916185902	-24.4	13.176	1001.376	0.35	-0.63	-0.7	-508.5	235.5	-1693.5	0	0	0	0	0	0	0	0	0	0	0	0	0	0	0	0	0	0	144887	224024	0
1632916185912	-27.328	21.472	999.912	0.42	-0.56	-0.56	-507	235.5	-1693.5	0	0	0	0	0	0	0	0	0	0	0	0	0	0	0	0	0	0	144871	224052	0
1632916185922	-45.872	11.224	1001.376	0.21	-0.21	-0.56	-508.5	243	-1692	0	0	0	0	0	0	0	0	0	0	0	0	0	0	0	0	0	0	144898	224061	0
1632916185932	-46.848	14.152	1007.72	0.28	-0.28	-0.63	-505.5	241.5	-1686	0	0	0	0	0	0	0	0	0	0	0	0	0	0	0	0	0	0	144896	224067	0
1632916185942	-39.04	20.984	1000.4	0.35	-0.35	-0.7	-502.5	237	-1692	0	0	0	0	0	0	0	0	0	0	0	0	0	0	0	0	0	0	144889	224068	0
1632916185952	-18.544	17.08	999.424	0.35	-0.49	-0.7	-508.5	235.5	-1696.5	0	0	0	0	0	0	0	0	0	0	0	0	0	0	0	0	0	0	144887	224087	0
1632916185962	-40.992	15.616	1010.16	0.21	-0.35	-0.63	-504	234	-1692	0	0	0	0	0	0	0	0	0	0	0	0	0	0	0	0	0	0	144898	224080	0
1632916185972	-41.968	16.592	1004.792	0.28	-0.21	-0.56	-501	237	-1693.5	0	0	0	0	0	0	0	0	0	0	0	0	0	0	0	0	0	0	144890	224103	0
1632916185982	-29.28	17.08	997.96	0.35	-0.28	-0.63	-505.5	241.5	-1698	0	0	0	0	0	0	0	0	0	0	0	0	0	0	0	0	0	0	144898	224120	0
1632916185992	-42.944	12.688	998.936	0.14	-0.28	-0.56	-505.5	237	-1695	0	0	0	0	0	0	0	0	0	0	0	0	0	0	0	0	0	0	144898	224134	0
1632916186002	-39.04	17.08	1000.888	0.35	-0.07	-0.63	-504	237	-1695	0	0	0	0	0	0	0	0	0	0	0	0	0	0	0	0	0	0	144887	224127	0
1632916186012	-40.016	22.448	1001.864	0.35	-0.35	-0.56	-504	241.5	-1692	0	0	0	0	0	0	0	0	0	0	0	0	0	0	0	0	0	0	144941	224048	0
1632916186022	-38.064	16.104	998.448	0.35	-0.35	-0.56	-505.5	238.5	-1687.5	0	0	0	0	0	0	0	0	0	0	0	0	0	0	0	0	0	0	144872	224148	0
1632916186032	-34.648	17.568	1005.768	0.28	-0.35	-0.63	-502.5	232.5	-1692	0	0	0	0	0	0	0	0	0	0	0	0	0	0	0	0	0	0	144864	224144	0
1632916186042	-35.136	12.2	997.472	0.28	-0.28	-0.7	-499.5	234	-1695	0	0	0	0	0	0	0	0	0	0	0	0	0	0	0	0	0	0	144866	224135	0
1632916186052	-37.088	20.008	1006.256	0.28	-0.35	-0.56	-495	240	-1687.5	0	0	0	0	0	0	0	0	0	0	0	0	0	0	0	0	0	0	144861	224124	0
1632916186062	-39.04	9.76	1004.792	0.35	-0.42	-0.7	-501	235.5	-1689	0	0	0	0	0	0	0	0	0	0	0	0	0	0	0	0	0	0	144865	224140	0
1632916186072	-40.992	19.032	1002.352	0.28	-0.35	-0.63	-511.5	234	-1695	0	0	0	0	0	0	0	0	0	0	0	0	0	0	0	0	0	0	144875	224148	0
1632916186082	-40.992	16.104	1008.696	0.35	-0.35	-0.63	-507	237	-1686	0	0	0	0	0	0	0	0	0	0	0	0	0	0	0	0	0	0	144892	224183	0
1632916186092	-44.408	14.64	1002.84	0.35	-0.14	-0.56	-505.5	238.5	-1683	0	0	0	0	0	0	0	0	0	0	0	0	0	0	0	0	0	0	144880	224204	0
1632916186102	-37.088	19.032	1000.888	0.28	-0.42	-0.49	-501	238.5	-1687.5	0	0	0	0	0	0	0	0	0	0	0	0	0	0	0	0	0	0	144902	224248	0
1632916186112	-41.968	18.544	993.568	0.35	-0.07	-0.7	-499.5	240	-1690.5	0	0	0	0	0	0	0	0	0	0	0	0	0	0	0	0	0	0	144901	224283	0
1632916186122	-35.136	20.496	1008.208	0.35	-0.35	-0.56	-505.5	238.5	-1695	0	0	0	0	0	0	0	0	0	0	0	0	0	0	0	0	0	0	144913	224308	0
1632916186132	-43.432	15.128	999.424	0.21	-0.21	-0.63	-505.5	237	-1692	0	0	0	0	0	0	0	0	0	0	0	0	0	0	0	0	0	0	144903	224360	0
1632916186142	-45.872	16.592	1000.4	0.28	-0.21	-0.56	-501	235.5	-1690.5	0	0	0	0	0	0	0	0	0	0	0	0	0	0	0	0	0	0	144905	224372	0
1632916186152	-40.992	12.688	996.496	0.28	-0.28	-0.56	-498	234	-1695	0	0	0	0	0	0	0	0	0	0	0	0	0	0	0	0	0	0	144906	224411	0
1632916186162	-39.04	17.568	998.936	0.35	-0.28	-0.56	-498	235.5	-1695	0	0	0	0	0	0	0	0	0	0	0	0	0	0	0	0	0	0	144916	224456	0
1632916186172	-40.992	16.104	1004.792	0.49	-0.35	-0.56	-499.5	235.5	-1690.5	0	0	0	0	0	0	0	0	0	0	0	0	0	0	0	0	0	0	144953	224497	0
1632916186182	-42.944	15.128	1000.4	0.35	-0.28	-0.63	-495	238.5	-1686	0	0	0	0	0	0	0	0	0	0	0	0	0	0	0	0	0	0	144963	224525	0
1632916186192	-36.112	11.224	1005.28	0.35	-0.28	-0.63	-501	238.5	-1686	0	0	0	0	0	0	0	0	0	0	0	0	0	0	0	0	0	0	144992	224570	0
1632916186202	-39.04	19.032	1003.328	0.35	-0.35	-0.56	-508.5	238.5	-1692	0	0	0	0	0	0	0	0	0	0	0	0	0	0	0	0	0	0	144985	224585	0
1632916186212	-38.064	14.152	999.912	0.28	-0.35	-0.63	-501	238.5	-1698	0	0	0	0	0	0	0	0	0	0	0	0	0	0	0	0	0	0	145014	224635	0
1632916186222	-39.528	18.544	1003.816	0.35	-0.35	-0.7	-499.5	238.5	-1693.5	0	0	0	0	0	0	0	0	0	0	0	0	0	0	0	0	0	0	145057	224662	0
1632916186232	-36.6	21.96	1004.304	0.21	-0.28	-0.56	-504	241.5	-1692	0	0	0	0	0	0	0	0	0	0	0	0	0	0	0	0	0	0	145066	224718	0
1632916186242	-33.184	14.64	999.912	0.35	-0.35	-0.56	-499.5	243	-1693.5	0	0	0	0	0	0	0	0	0	0	0	0	0	0	0	0	0	0	145106	224792	0
1632916186252	-40.992	15.616	999.912	0.28	-0.21	-0.56	-498	243	-1687.5	0	0	0	0	0	0	0	0	0	0	0	0	0	0	0	0	0	0	145183	224873	0
1632916186262	-22.448	10.736	1003.816	0.28	-0.28	-0.7	-501	238.5	-1686	0	0	0	0	0	0	0	0	0	0	0	0	0	0	0	0	0	0	145234	224941	0
1632916186272	-44.408	16.104	997.96	0.35	-0.14	-0.63	-502.5	238.5	-1692	0	0	0	0	0	0	0	0	0	0	0	0	0	0	0	0	0	0	145270	225012	0
1632916186282	-42.456	9.76	1001.376	0.28	-0.28	-0.56	-508.5	241.5	-1692	0	0	0	0	0	0	0	0	0	0	0	0	0	0	0	0	0	0	145292	225041	0
1632916186292	-44.408	9.272	998.936	0.28	-0.28	-0.7	-510	241.5	-1696.5	0	0	0	0	0	0	0	0	0	0	0	0	0	0	0	0	0	0	145298	225071	0
1632916186302	-40.504	19.032	998.448	0.28	-0.35	-0.63	-504	238.5	-1687.5	0	0	0	0	0	0	0	0	0	0	0	0	0	0	0	0	0	0	145302	225087	0
1632916186312	-38.552	10.248	1004.304	0.42	-0.28	-0.63	-501	238.5	-1686	0	0	0	0	0	0	0	0	0	0	0	0	0	0	0	0	0	0	145295	225096	0
1632916186322	-40.016	10.736	1001.376	0.35	-0.21	-0.63	-502.5	235.5	-1686	0	0	0	0	0	0	0	0	0	0	0	0	0	0	0	0	0	0	145317	225130	0
1632916186332	-38.064	10.736	1002.84	0.28	-0.21	-0.56	-502.5	237	-1689	0	0	0	0	0	0	0	0	0	0	0	0	0	0	0	0	0	0	145332	225140	0
1632916186342	-38.552	21.472	998.448	0.42	-0.21	-0.49	-505.5	240	-1690.5	0	0	0	0	0	0	0	0	0	0	0	0	0	0	0	0	0	0	145340	225155	0
1632916186352	-42.944	14.64	998.936	0.35	-0.21	-0.63	-510	240	-1692	0	0	0	0	0	0	0	0	0	0	0	0	0	0	0	0	0	0	145371	225180	0
1632916186362	-45.872	17.568	999.424	0.28	-0.28	-0.56	-505.5	237	-1692	0	0	0	0	0	0	0	0	0	0	0	0	0	0	0	0	0	0	145370	225209	0
1632916186372	-41.968	13.664	999.424	0.42	-0.35	-0.63	-499.5	234	-1692	0	0	0	0	0	0	0	0	0	0	0	0	0	0	0	0	0	0	145393	225212	0
1632916186382	-36.112	21.472	1003.328	0.28	-0.35	-0.63	-499.5	232.5	-1692	0	0	0	0	0	0	0	0	0	0	0	0	0	0	0	0	0	0	145412	225240	0
1632916186392	-50.752	16.592	1001.864	0.28	-0.35	-0.63	-505.5	232.5	-1687.5	0	0	0	0	0	0	0	0	0	0	0	0	0	0	0	0	0	0	145423	225251	0
1632916186402	-34.648	19.52	999.912	0.28	-0.28	-0.63	-502.5	235.5	-1686	0	0	0	0	0	0	0	0	0	0	0	0	0	0	0	0	0	0	145440	225267	0
1632916186412	-42.456	14.64	1009.184	0.35	-0.21	-0.63	-498	240	-1690.5	0	0	0	0	0	0	0	0	0	0	0	0	0	0	0	0	0	0	145453	225303	0
1632916186422	-39.04	15.616	1007.232	0.28	-0.28	-0.63	-499.5	241.5	-1693.5	0	0	0	0	0	0	0	0	0	0	0	0	0	0	0	0	0	0	145447	225304	0
1632916186432	-40.992	11.224	1003.328	0.14	-0.28	-0.63	-507	240	-1692	0	0	0	0	0	0	0	0	0	0	0	0	0	0	0	0	0	0	145455	225342	0
1632916186442	-38.064	17.08	997.96	0.28	-0.28	-0.7	-505.5	240	-1690.5	0	0	0	0	0	0	0	0	0	0	0	0	0	0	0	0	0	0	145456	225322	0
1632916186452	-40.504	14.152	998.448	0.28	-0.21	-0.7	-499.5	238.5	-1690.5	0	0	0	0	0	0	0	0	0	0	0	0	0	0	0	0	0	0	145461	225332	0
1632916186462	-45.384	14.152	1001.376	0.35	-0.28	-0.7	-501	237	-1693.5	0	0	0	0	0	0	0	0	0	0	0	0	0	0	0	0	0	0	145498	225361	0
1632916186472	-40.504	14.152	1004.304	0.35	-0.28	-0.63	-502.5	238.5	-1692	0	0	0	0	0	0	0	0	0	0	0	0	0	0	0	0	0	0	145508	225394	0
1632916186482	-36.112	15.616	1001.376	0.21	-0.28	-0.63	-504	241.5	-1689	0	0	0	0	0	0	0	0	0	0	0	0	0	0	0	0	0	0	145547	225409	0
1632916186492	-38.552	16.104	1004.304	0.35	-0.21	-0.63	-502.5	240	-1689	0	0	0	0	0	0	0	0	0	0	0	0	0	0	0	0	0	0	145546	225432	0
1632916186502	-30.744	22.936	1005.768	0.35	-0.35	-0.63	-504	240	-1690.5	0	0	0	0	0	0	0	0	0	0	0	0	0	0	0	0	0	0	145579	225455	0
1632916186512	-35.136	18.056	1004.304	0.28	-0.28	-0.63	-504	240	-1690.5	0	0	0	0	0	0	0	0	0	0	0	0	0	0	0	0	0	0	145571	225465	0
1632916186522	-39.528	12.2	1000.888	0.42	-0.35	-0.63	-502.5	238.5	-1696.5	0	0	0	0	0	0	0	0	0	0	0	0	0	0	0	0	0	0	145568	225489	0
1632916186532	-38.552	17.568	999.912	0.35	-0.28	-0.63	-504	243	-1696.5	0	0	0	0	0	0	0	0	0	0	0	0	0	0	0	0	0	0	145553	225532	0
1632916186542	-44.896	19.52	1001.376	0.28	-0.35	-0.56	-505.5	246	-1687.5	0	0	0	0	0	0	0	0	0	0	0	0	0	0	0	0	0	0	145558	225554	0
1632916186552	-45.872	18.544	1001.376	0.35	-0.28	-0.56	-504	240	-1689	0	0	0	0	0	0	0	0	0	0	0	0	0	0	0	0	0	0	145570	225575	0
1632916186562	-45.384	17.08	1002.352	0.42	-0.28	-0.63	-510	237	-1692	0	0	0	0	0	0	0	0	0	0	0	0	0	0	0	0	0	0	145585	225572	0
1632916186572	-33.184	16.592	1003.816	0.28	-0.42	-0.63	-508.5	237	-1695	0	0	0	0	0	0	0	0	0	0	0	0	0	0	0	0	0	0	145591	225598	0
1632916186582	-39.528	18.544	1002.352	0.42	-0.35	-0.56	-504	238.5	-1696.5	0	0	0	0	0	0	0	0	0	0	0	0	0	0	0	0	0	0	145593	225600	0
1632916186592	-38.064	20.984	999.424	0.35	-0.28	-0.56	-507	240	-1696.5	0	0	0	0	0	0	0	0	0	0	0	0	0	0	0	0	0	0	145586	225616	0
1632916186602	-41.48	14.152	1002.84	0.28	-0.21	-0.56	-504	237	-1698	0	0	0	0	0	0	0	0	0	0	0	0	0	0	0	0	0	0	145598	225627	0
1632916186612	-42.944	17.568	999.912	0.28	-0.28	-0.63	-504	238.5	-1696.5	0	0	0	0	0	0	0	0	0	0	0	0	0	0	0	0	0	0	145575	225618	0
1632916186622	-35.136	12.688	998.448	0.35	-0.28	-0.63	-505.5	237	-1696.5	0	0	0	0	0	0	0	0	0	0	0	0	0	0	0	0	0	0	145572	225594	0
1632916186632	-34.648	15.616	998.448	0.28	-0.14	-0.56	-502.5	237	-1692	0	0	0	0	0	0	0	0	0	0	0	0	0	0	0	0	0	0	145565	225591	0
1632916186642	-33.672	14.64	1002.352	0.28	-0.21	-0.7	-502.5	243	-1690.5	0	0	0	0	0	0	0	0	0	0	0	0	0	0	0	0	0	0	145596	225624	0
1632916186652	-34.648	20.984	999.424	0.42	-0.35	-0.56	-505.5	241.5	-1692	0	0	0	0	0	0	0	0	0	0	0	0	0	0	0	0	0	0	145548	225590	0
1632916186662	-31.72	10.736	1002.84	0.21	-0.28	-0.63	-501	235.5	-1686	0	0	0	0	0	0	0	0	0	0	0	0	0	0	0	0	0	0	145570	225596	0
1632916186672	-43.432	17.568	1004.304	0.35	-0.28	-0.63	-498	235.5	-1686	0	0	0	0	0	0	0	0	0	0	0	0	0	0	0	0	0	0	145544	225589	0
1632916186682	-38.064	17.568	997.472	0.35	-0.35	-0.56	-499.5	240	-1690.5	0	0	0	0	0	0	0	0	0	0	0	0	0	0	0	0	0	0	145554	225595	0
1632916186692	-31.72	15.128	1001.864	0.21	-0.35	-0.56	-501	241.5	-1692	0	0	0	0	0	0	0	0	0	0	0	0	0	0	0	0	0	0	145562	225607	0
1632916186702	-36.6	18.056	1005.28	0.35	-0.35	-0.63	-502.5	238.5	-1692	0	0	0	0	0	0	0	0	0	0	0	0	0	0	0	0	0	0	145573	225600	0
1632916186712	-46.848	14.64	1003.328	0.28	-0.35	-0.49	-502.5	232.5	-1695	0	0	0	0	0	0	0	0	0	0	0	0	0	0	0	0	0	0	145574	225605	0
1632916186722	-37.576	14.152	1005.768	0.35	-0.28	-0.56	-501	235.5	-1690.5	0	0	0	0	0	0	0	0	0	0	0	0	0	0	0	0	0	0	145573	225595	0
1632916186732	-39.04	14.152	998.448	0.28	-0.28	-0.7	-499.5	237	-1686	0	0	0	0	0	0	0	0	0	0	0	0	0	0	0	0	0	0	145566	225560	0
1632916186743	-40.992	14.64	1002.84	0.35	-0.28	-0.63	-498	232.5	-1683	0	0	0	0	0	0	0	0	0	0	0	0	0	0	0	0	0	0	145570	225527	0
1632916186753	-43.432	21.472	1003.816	0.35	-0.21	-0.7	-496.5	235.5	-1687.5	0	0	0	0	0	0	0	0	0	0	0	0	0	0	0	0	0	0	145551	225522	0
1632916186763	-34.648	10.736	1000.4	0.28	-0.28	-0.56	-498	235.5	-1692	0	0	0	0	0	0	0	0	0	0	0	0	0	0	0	0	0	0	145554	225469	0
1632916186773	-31.232	21.472	1002.84	0.28	-0.14	-0.49	-498	237	-1687.5	0	0	0	0	0	0	0	0	0	0	0	0	0	0	0	0	0	0	145562	225447	0
1632916186783	-41.48	20.008	1002.84	0.28	-0.28	-0.63	-496.5	235.5	-1689	0	0	0	0	0	0	0	0	0	0	0	0	0	0	0	0	0	0	145571	225433	0
1632916186793	-35.136	21.472	1004.304	0.42	-0.21	-0.63	-504	234	-1690.5	0	0	0	0	0	0	0	0	0	0	0	0	0	0	0	0	0	0	145580	225437	0
1632916186803	-39.04	14.64	1006.256	0.35	-0.35	-0.56	-504	235.5	-1692	0	0	0	0	0	0	0	0	0	0	0	0	0	0	0	0	0	0	145592	225435	0
1632916186813	-35.624	26.352	1002.84	0.28	-0.35	-0.56	-499.5	234	-1689	0	0	0	0	0	0	0	0	0	0	0	0	0	0	0	0	0	0	145585	225431	0
1632916186823	-38.552	19.52	1000.4	0.42	-0.35	-0.63	-504	235.5	-1690.5	0	0	0	0	0	0	0	0	0	0	0	0	0	0	0	0	0	0	145580	225446	0
1632916186833	-38.064	19.032	999.912	0.35	-0.42	-0.56	-505.5	238.5	-1690.5	0	0	0	0	0	0	0	0	0	0	0	0	0	0	0	0	0	0	145571	225453	0
1632916186843	-37.576	11.712	1001.864	0.28	-0.35	-0.63	-504	235.5	-1695	0	0	0	0	0	0	0	0	0	0	0	0	0	0	0	0	0	0	145601	225476	0
1632916186853	-36.6	17.568	1002.352	0.28	-0.35	-0.63	-501	237	-1695	0	0	0	0	0	0	0	0	0	0	0	0	0	0	0	0	0	0	145647	225583	0
1632916186863	-38.552	22.448	1002.352	0.42	-0.21	-0.63	-501	240	-1692	0	0	0	0	0	0	0	0	0	0	0	0	0	0	0	0	0	0	145627	225551	0
1632916186873	-34.648	9.272	1002.352	0.28	-0.28	-0.56	-504	237	-1689	0	0	0	0	0	0	0	0	0	0	0	0	0	0	0	0	0	0	145656	225626	0
1632916186883	-41.48	17.568	997.472	0.35	-0.42	-0.63	-507	240	-1690.5	0	0	0	0	0	0	0	0	0	0	0	0	0	0	0	0	0	0	145658	225665	0
1632916186893	-39.528	15.616	998.448	0.42	-0.21	-0.63	-505.5	237	-1687.5	0	0	0	0	0	0	0	0	0	0	0	0	0	0	0	0	0	0	145680	225693	0
1632916186903	-37.576	16.104	1002.84	0.21	-0.21	-0.63	-502.5	234	-1690.5	0	0	0	0	0	0	0	0	0	0	0	0	0	0	0	0	0	0	145685	225727	0
1632916186913	-39.528	16.104	1000.888	0.49	-0.28	-0.56	-507	234	-1695	0	0	0	0	0	0	0	0	0	0	0	0	0	0	0	0	0	0	145679	225751	0
1632916186923	-35.624	17.08	1000.4	0.28	-0.14	-0.63	-508.5	240	-1698	0	0	0	0	0	0	0	0	0	0	0	0	0	0	0	0	0	0	145688	225775	0
1632916186933	-38.552	15.616	1003.328	0.35	-0.28	-0.56	-505.5	235.5	-1687.5	0	0	0	0	0	0	0	0	0	0	0	0	0	0	0	0	0	0	145696	225782	0
1632916186943	-39.528	20.008	1000.4	0.35	-0.21	-0.63	-507	232.5	-1692	0	0	0	0	0	0	0	0	0	0	0	0	0	0	0	0	0	0	145695	225801	0
1632916186953	-31.232	11.712	999.912	0.35	-0.21	-0.63	-502.5	238.5	-1692	0	0	0	0	0	0	0	0	0	0	0	0	0	0	0	0	0	0	145698	225831	0
1632916186963	-43.432	14.152	1000.888	0.28	-0.28	-0.49	-501	234	-1683	0	0	0	0	0	0	0	0	0	0	0	0	0	0	0	0	0	0	145701	225828	0
1632916186973	-43.92	12.2	1002.352	0.28	-0.28	-0.63	-501	234	-1689	0	0	0	0	0	0	0	0	0	0	0	0	0	0	0	0	0	0	145713	225858	0
1632916186983	-38.552	14.64	996.984	0.28	-0.28	-0.7	-499.5	235.5	-1687.5	0	0	0	0	0	0	0	0	0	0	0	0	0	0	0	0	0	0	145733	225874	0
1632916186993	-37.576	12.2	998.936	0.42	-0.14	-0.63	-502.5	234	-1689	0	0	0	0	0	0	0	0	0	0	0	0	0	0	0	0	0	0	145731	225864	0
1632916187003	-44.408	15.128	1000.888	0.21	-0.28	-0.56	-505.5	238.5	-1695	0	0	0	0	0	0	0	0	0	0	0	0	0	0	0	0	0	0	145741	225870	0
1632916187013	-36.6	11.712	999.424	0.28	-0.28	-0.63	-499.5	235.5	-1698	0	0	0	0	0	0	0	0	0	0	0	0	0	0	0	0	0	0	145747	225879	0
1632916187023	-41.968	16.104	997.472	0.21	-0.28	-0.56	-496.5	234	-1695	0	0	0	0	0	0	0	0	0	0	0	0	0	0	0	0	0	0	145755	225868	0
1632916187033	-39.04	14.64	995.52	0.28	-0.35	-0.63	-499.5	240	-1695	0	0	0	0	0	0	0	0	0	0	0	0	0	0	0	0	0	0	145778	225892	0
1632916187043	-39.04	20.008	1004.792	0.28	-0.35	-0.56	-499.5	244.5	-1698	0	0	0	0	0	0	0	0	0	0	0	0	0	0	0	0	0	0	145794	225934	0
1632916187053	-44.408	17.08	999.912	0.28	-0.35	-0.56	-501	241.5	-1696.5	0	0	0	0	0	0	0	0	0	0	0	0	0	0	0	0	0	0	145808	225947	0
1632916187063	-35.624	7.808	998.936	0.28	-0.28	-0.7	-504	240	-1690.5	0	0	0	0	0	0	0	0	0	0	0	0	0	0	0	0	0	0	145839	226046	0
1632916187073	-35.136	14.64	1004.304	0.21	-0.21	-0.56	-502.5	235.5	-1687.5	0	0	0	0	0	0	0	0	0	0	0	0	0	0	0	0	0	0	145816	226027	0
1632916187083	-39.04	17.08	1005.28	0.35	-0.35	-0.56	-501	235.5	-1690.5	0	0	0	0	0	0	0	0	0	0	0	0	0	0	0	0	0	0	145822	225995	0
1632916187093	-41.968	11.224	1001.864	0.28	-0.21	-0.63	-499.5	235.5	-1692	0	0	0	0	0	0	0	0	0	0	0	0	0	0	0	0	0	0	145838	226045	0
1632916187103	-40.992	10.736	1002.352	0.28	-0.21	-0.63	-501	234	-1692	0	0	0	0	0	0	0	0	0	0	0	0	0	0	0	0	0	0	145862	226076	0
1632916187113	-37.088	19.032	999.912	0.07	-0.42	-0.63	-508.5	240	-1689	0	0	0	0	0	0	0	0	0	0	0	0	0	0	0	0	0	0	145868	226076	0
1632916187123	-42.456	13.176	1002.352	0.63	-0.14	-0.7	-510	241.5	-1693.5	0	0	0	0	0	0	0	0	0	0	0	0	0	0	0	0	0	0	145880	226100	0
1632916187133	-45.384	23.424	1006.256	0.07	-0.21	-0.56	-504	240	-1689	0	0	0	0	0	0	0	0	0	0	0	0	0	0	0	0	0	0	145874	226123	0
1632916187143	-36.112	22.448	1002.352	0.28	-0.49	-0.56	-504	235.5	-1692	0	0	0	0	0	0	0	0	0	0	0	0	0	0	0	0	0	0	145879	226125	0
1632916187153	-40.992	12.2	998.936	0.35	-0.21	-0.49	-504	235.5	-1693.5	0	0	0	0	0	0	0	0	0	0	0	0	0	0	0	0	0	0	145883	226157	0
1632916187163	-38.064	17.08	1002.352	0.35	-0.21	-0.7	-507	240	-1690.5	0	0	0	0	0	0	0	0	0	0	0	0	0	0	0	0	0	0	145889	226164	0
1632916187173	-43.92	19.52	1002.352	0.28	-0.35	-0.63	-507	240	-1687.5	0	0	0	0	0	0	0	0	0	0	0	0	0	0	0	0	0	0	145900	226201	0
1632916187183	-35.136	19.52	1000.888	0.42	-0.42	-0.63	-505.5	241.5	-1695	0	0	0	0	0	0	0	0	0	0	0	0	0	0	0	0	0	0	145925	226208	0
1632916187193	-42.456	12.688	995.032	0.21	-0.14	-0.63	-502.5	237	-1693.5	0	0	0	0	0	0	0	0	0	0	0	0	0	0	0	0	0	0	145936	226212	0
1632916187203	-42.456	19.032	1003.328	0.42	-0.28	-0.63	-505.5	234	-1686	0	0	0	0	0	0	0	0	0	0	0	0	0	0	0	0	0	0	145943	226226	0
1632916187213	-36.6	23.424	1001.864	0.42	-0.28	-0.56	-502.5	235.5	-1684.5	0	0	0	0	0	0	0	0	0	0	0	0	0	0	0	0	0	0	145931	226247	0
1632916187223	-38.064	16.592	1003.816	0.21	-0.49	-0.56	-492	234	-1689	0	0	0	0	0	0	0	0	0	0	0	0	0	0	0	0	0	0	145940	226244	0
1632916187233	-47.336	16.104	996.984	0.56	-0.14	-0.63	-490.5	237	-1686	0	0	0	0	0	0	0	0	0	0	0	0	0	0	0	0	0	0	145936	226255	0
1632916187243	-41.968	20.008	1001.376	0.14	-0.28	-0.63	-499.5	235.5	-1681.5	0	0	0	0	0	0	0	0	0	0	0	0	0	0	0	0	0	0	145939	226279	0
1632916187253	-42.456	13.176	1001.864	0.35	-0.28	-0.56	-505.5	235.5	-1689	0	0	0	0	0	0	0	0	0	0	0	0	0	0	0	0	0	0	145940	226283	0
1632916187263	-36.6	21.472	1003.328	0.21	-0.28	-0.56	-507	237	-1696.5	0	0	0	0	0	0	0	0	0	0	0	0	0	0	0	0	0	0	145989	226288	0
1632916187273	-40.992	22.936	996.984	0.28	-0.28	-0.63	-508.5	237	-1690.5	0	0	0	0	0	0	0	0	0	0	0	0	0	0	0	0	0	0	146036	226386	0
1632916187283	-40.016	20.008	997.472	0.28	-0.28	-0.56	-510	240	-1689	0	0	0	0	0	0	0	0	0	0	0	0	0	0	0	0	0	0	145990	226322	0
1632916187293	-40.504	19.032	1000.888	0.35	-0.14	-0.63	-507	237	-1692	0	0	0	0	0	0	0	0	0	0	0	0	0	0	0	0	0	0	145994	226320	0
1632916187303	-35.624	11.224	999.424	0.28	-0.28	-0.7	-505.5	235.5	-1686	0	0	0	0	0	0	0	0	0	0	0	0	0	0	0	0	0	0	145989	226341	0
1632916187313	-40.016	15.128	997.96	0.35	-0.35	-0.56	-499.5	240	-1689	0	0	0	0	0	0	0	0	0	0	0	0	0	0	0	0	0	0	145983	226324	0
1632916187323	-34.16	16.104	999.424	0.21	-0.42	-0.7	-499.5	237	-1692	0	0	0	0	0	0	0	0	0	0	0	0	0	0	0	0	0	0	145989	226350	0
1632916187333	-41.48	18.544	1001.376	0.49	-0.21	-0.63	-502.5	235.5	-1690.5	0	0	0	0	0	0	0	0	0	0	0	0	0	0	0	0	0	0	145986	226351	0
1632916187343	-40.992	15.616	997.96	0.07	-0.28	-0.7	-499.5	238.5	-1690.5	0	0	0	0	0	0	0	0	0	0	0	0	0	0	0	0	0	0	145997	226360	0
1632916187353	-46.36	15.128	1003.328	0.49	-0.14	-0.7	-499.5	237	-1690.5	0	0	0	0	0	0	0	0	0	0	0	0	0	0	0	0	0	0	146009	226365	0
1632916187363	-37.088	14.64	1000.4	0.35	-0.42	-0.56	-504	238.5	-1687.5	0	0	0	0	0	0	0	0	0	0	0	0	0	0	0	0	0	0	145999	226375	0
1632916187373	-40.504	21.472	1004.792	0.28	-0.21	-0.63	-504	244.5	-1689	0	0	0	0	0	0	0	0	0	0	0	0	0	0	0	0	0	0	145992	226386	0
1632916187383	-44.896	14.64	1002.352	0.35	-0.21	-0.56	-496.5	243	-1692	0	0	0	0	0	0	0	0	0	0	0	0	0	0	0	0	0	0	145983	226395	0
1632916187393	-40.992	19.52	1004.304	0.28	-0.28	-0.49	-499.5	238.5	-1693.5	0	0	0	0	0	0	0	0	0	0	0	0	0	0	0	0	0	0	145977	226357	0
1632916187403	-22.936	12.688	1004.304	0.21	-0.28	-0.56	-504	235.5	-1692	0	0	0	0	0	0	0	0	0	0	0	0	0	0	0	0	0	0	145968	226330	0
1632916187413	-37.088	21.472	1004.792	0.35	-0.28	-0.56	-502.5	234	-1692	0	0	0	0	0	0	0	0	0	0	0	0	0	0	0	0	0	0	145964	226294	0
1632916187423	-36.112	14.152	998.936	0.28	-0.21	-0.63	-501	231	-1692	0	0	0	0	0	0	0	0	0	0	0	0	0	0	0	0	0	0	145957	226271	0
1632916187433	-37.576	13.176	1001.376	0.21	-0.35	-0.56	-501	235.5	-1698	0	0	0	0	0	0	0	0	0	0	0	0	0	0	0	0	0	0	145963	226237	0
1632916187443	-38.064	17.568	998.448	0.49	-0.21	-0.56	-499.5	243	-1693.5	0	0	0	0	0	0	0	0	0	0	0	0	0	0	0	0	0	0	145947	226229	0
1632916187453	-44.408	20.008	1004.792	0	-0.42	-0.63	-499.5	240	-1692	0	0	0	0	0	0	0	0	0	0	0	0	0	0	0	0	0	0	145948	226211	0
1632916187463	-34.648	15.128	998.448	0.42	-0.14	-0.56	-499.5	231	-1687.5	0	0	0	0	0	0	0	0	0	0	0	0	0	0	0	0	0	0	145956	226198	0
1632916187473	-49.288	20.496	1001.864	0.14	-0.07	-0.56	-502.5	226.5	-1686	0	0	0	0	0	0	0	0	0	0	0	0	0	0	0	0	0	0	145930	226202	0
1632916187483	-39.04	17.568	999.912	0.35	-0.28	-0.63	-505.5	235.5	-1684.5	0	0	0	0	0	0	0	0	0	0	0	0	0	0	0	0	0	0	145984	226285	0
1632916187493	-34.16	15.128	998.936	0.35	-0.42	-0.63	-504	235.5	-1686	0	0	0	0	0	0	0	0	0	0	0	0	0	0	0	0	0	0	145955	226226	0
1632916187503	-45.872	18.056	1001.376	0.28	-0.28	-0.7	-504	232.5	-1684.5	0	0	0	0	0	0	0	0	0	0	0	0	0	0	0	0	0	0	145963	226238	0
1632916187513	-40.504	13.664	998.448	0.28	-0.21	-0.63	-502.5	238.5	-1689	0	0	0	0	0	0	0	0	0	0	0	0	0	0	0	0	0	0	145986	226263	0
1632916187523	-32.696	11.224	1004.304	0.42	-0.35	-0.63	-505.5	235.5	-1690.5	0	0	0	0	0	0	0	0	0	0	0	0	0	0	0	0	0	0	146003	226298	0
1632916187533	-35.624	12.2	1002.84	0.35	-0.28	-0.63	-507	237	-1692	0	0	0	0	0	0	0	0	0	0	0	0	0	0	0	0	0	0	146006	226328	0
1632916187543	-40.504	16.104	1004.304	0.21	-0.35	-0.56	-502.5	232.5	-1690.5	0	0	0	0	0	0	0	0	0	0	0	0	0	0	0	0	0	0	146018	226335	0
1632916187553	-41.48	14.64	999.424	0.42	-0.07	-0.63	-502.5	231	-1690.5	0	0	0	0	0	0	0	0	0	0	0	0	0	0	0	0	0	0	146027	226364	0
1632916187563	-40.016	14.152	1006.744	0.21	-0.42	-0.56	-501	235.5	-1689	0	0	0	0	0	0	0	0	0	0	0	0	0	0	0	0	0	0	146023	226378	0
1632916187573	-34.648	20.496	999.912	0.35	-0.35	-0.63	-504	237	-1692	0	0	0	0	0	0	0	0	0	0	0	0	0	0	0	0	0	0	146029	226391	0
1632916187583	-42.456	17.568	1000.4	0.35	-0.07	-0.63	-508.5	237	-1695	0	0	0	0	0	0	0	0	0	0	0	0	0	0	0	0	0	0	146022	226401	0
1632916187593	-40.504	16.592	999.912	0.21	-0.28	-0.7	-507	232.5	-1695	0	0	0	0	0	0	0	0	0	0	0	0	0	0	0	0	0	0	146034	226433	0
1632916187603	-29.28	13.176	1002.352	0.28	-0.42	-0.56	-504	238.5	-1696.5	0	0	0	0	0	0	0	0	0	0	0	0	0	0	0	0	0	0	146039	226452	0
1632916187613	-36.6	15.128	996.984	0.35	-0.35	-0.63	-505.5	241.5	-1692	0	0	0	0	0	0	0	0	0	0	0	0	0	0	0	0	0	0	146069	226486	0
1632916187623	-36.6	16.104	997.96	0.35	-0.28	-0.63	-507	231	-1692	0	0	0	0	0	0	0	0	0	0	0	0	0	0	0	0	0	0	146101	226519	0
1632916187633	-40.504	12.688	1002.352	0.35	-0.28	-0.49	-508.5	234	-1686	0	0	0	0	0	0	0	0	0	0	0	0	0	0	0	0	0	0	146101	226561	0
1632916187643	-42.456	14.152	1001.864	0.28	-0.28	-0.63	-501	238.5	-1690.5	0	0	0	0	0	0	0	0	0	0	0	0	0	0	0	0	0	0	146095	226553	0
1632916187653	-34.648	21.472	1008.208	0.28	-0.28	-0.63	-501	238.5	-1696.5	0	0	0	0	0	0	0	0	0	0	0	0	0	0	0	0	0	0	146122	226561	0
1632916187663	-30.744	20.008	999.912	0.49	-0.21	-0.56	-504	237	-1690.5	0	0	0	0	0	0	0	0	0	0	0	0	0	0	0	0	0	0	146124	226580	0
1632916187673	-40.992	21.472	1001.376	0.14	-0.21	-0.56	-508.5	237	-1690.5	0	0	0	0	0	0	0	0	0	0	0	0	0	0	0	0	0	0	146098	226560	0
1632916187683	-45.872	21.96	1009.184	0.21	-0.35	-0.63	-504	240	-1686	0	0	0	0	0	0	0	0	0	0	0	0	0	0	0	0	0	0	146119	226571	0
1632916187693	-35.136	20.496	999.424	0.56	-0.28	-0.63	-498	240	-1686	0	0	0	0	0	0	0	0	0	0	0	0	0	0	0	0	0	0	146137	226648	0
1632916187703	-33.184	9.272	999.912	0.35	-0.28	-0.7	-501	238.5	-1687.5	0	0	0	0	0	0	0	0	0	0	0	0	0	0	0	0	0	0	146127	226605	0
1632916187713	-33.184	14.64	1007.232	0.21	-0.21	-0.56	-504	241.5	-1686	0	0	0	0	0	0	0	0	0	0	0	0	0	0	0	0	0	0	146124	226582	0
1632916187723	-42.944	18.056	998.448	0.35	-0.28	-0.56	-499.5	232.5	-1689	0	0	0	0	0	0	0	0	0	0	0	0	0	0	0	0	0	0	146140	226635	0
1632916187733	-33.672	10.248	1002.84	0.28	-0.28	-0.56	-498	232.5	-1692	0	0	0	0	0	0	0	0	0	0	0	0	0	0	0	0	0	0	146146	226646	0
1632916187743	-46.848	13.176	1000.888	0.35	-0.35	-0.63	-504	241.5	-1693.5	0	0	0	0	0	0	0	0	0	0	0	0	0	0	0	0	0	0	146136	226636	0
1632916187753	-38.064	22.448	999.424	0.42	-0.28	-0.56	-508.5	243	-1696.5	0	0	0	0	0	0	0	0	0	0	0	0	0	0	0	0	0	0	146156	226647	0
1632916187763	-39.528	19.52	1002.352	0.28	-0.35	-0.63	-502.5	241.5	-1698	0	0	0	0	0	0	0	0	0	0	0	0	0	0	0	0	0	0	146140	226605	0
1632916187773	-31.72	15.128	1001.864	0.21	-0.35	-0.63	-501	241.5	-1693.5	0	0	0	0	0	0	0	0	0	0	0	0	0	0	0	0	0	0	146149	226619	0
1632916187783	-41.48	23.424	1001.864	0.56	-0.14	-0.63	-504	235.5	-1692	0	0	0	0	0	0	0	0	0	0	0	0	0	0	0	0	0	0	146167	226681	0
1632916187793	-40.016	15.616	1001.864	0	-0.42	-0.56	-502.5	232.5	-1692	0	0	0	0	0	0	0	0	0	0	0	0	0	0	0	0	0	0	146144	226627	0
1632916187803	-33.184	14.152	1005.768	0.42	-0.14	-0.63	-499.5	234	-1698	0	0	0	0	0	0	0	0	0	0	0	0	0	0	0	0	0	0	146149	226625	0
1632916187813	-40.504	20.008	1002.352	0.35	-0.28	-0.63	-499.5	238.5	-1696.5	0	0	0	0	0	0	0	0	0	0	0	0	0	0	0	0	0	0	146145	226640	0
1632916187823	-34.648	6.344	993.08	0.35	-0.35	-0.63	-504	238.5	-1692	0	0	0	0	0	0	0	0	0	0	0	0	0	0	0	0	0	0	146167	226646	0
1632916187833	-45.384	17.08	1003.816	0.28	-0.35	-0.56	-504	234	-1692	0	0	0	0	0	0	0	0	0	0	0	0	0	0	0	0	0	0	146185	226725	0
1632916187843	-32.696	6.832	1005.768	0.35	-0.21	-0.63	-502.5	237	-1698	0	0	0	0	0	0	0	0	0	0	0	0	0	0	0	0	0	0	146203	226752	0
1632916187853	-39.04	19.52	998.448	0.35	-0.28	-0.56	-502.5	237	-1699.5	0	0	0	0	0	0	0	0	0	0	0	0	0	0	0	0	0	0	146202	226771	0
1632916187863	-30.256	17.08	998.448	0.28	-0.21	-0.63	-504	232.5	-1695	0	0	0	0	0	0	0	0	0	0	0	0	0	0	0	0	0	0	146173	226773	0
1632916187873	-36.112	8.784	1006.256	0.35	-0.42	-0.63	-505.5	235.5	-1693.5	0	0	0	0	0	0	0	0	0	0	0	0	0	0	0	0	0	0	146196	226793	0
1632916187883	-43.432	20.008	1001.864	0.21	-0.35	-0.56	-508.5	238.5	-1684.5	0	0	0	0	0	0	0	0	0	0	0	0	0	0	0	0	0	0	146208	226799	0
1632916187893	-44.896	23.912	1000.4	0.35	-0.35	-0.63	-511.5	237	-1689	0	0	0	0	0	0	0	0	0	0	0	0	0	0	0	0	0	0	146218	226811	0
1632916187903	-40.504	19.52	1001.864	0.63	-0.28	-0.63	-508.5	240	-1695	0	0	0	0	0	0	0	0	0	0	0	0	0	0	0	0	0	0	146213	226868	0
1632916187913	-36.6	6.832	1004.792	0.07	-0.35	-0.63	-502.5	238.5	-1689	0	0	0	0	0	0	0	0	0	0	0	0	0	0	0	0	0	0	146245	226870	0
1632916187923	-35.624	14.152	1004.792	0.35	-0.28	-0.63	-498	234	-1692	0	0	0	0	0	0	0	0	0	0	0	0	0	0	0	0	0	0	146240	226896	0
1632916187933	-45.384	25.864	1004.792	0.35	-0.28	-0.63	-499.5	229.5	-1693.5	0	0	0	0	0	0	0	0	0	0	0	0	0	0	0	0	0	0	146255	226932	0
1632916187943	-40.992	19.52	1002.84	0.28	-0.35	-0.63	-501	232.5	-1690.5	0	0	0	0	0	0	0	0	0	0	0	0	0	0	0	0	0	0	146254	226927	0
1632916187953	-44.896	17.08	1003.816	0.35	-0.21	-0.63	-499.5	231	-1689	0	0	0	0	0	0	0	0	0	0	0	0	0	0	0	0	0	0	146248	226943	0
1632916187963	-38.064	16.592	999.424	0.35	-0.35	-0.56	-499.5	232.5	-1695	0	0	0	0	0	0	0	0	0	0	0	0	0	0	0	0	0	0	146255	226952	0
1632916187973	-37.088	15.128	1004.792	0.28	-0.35	-0.63	-499.5	237	-1696.5	0	0	0	0	0	0	0	0	0	0	0	0	0	0	0	0	0	0	146263	226968	0
1632916187983	-29.768	12.2	997.96	0.28	-0.35	-0.7	-498	234	-1690.5	0	0	0	0	0	0	0	0	0	0	0	0	0	0	0	0	0	0	146259	226957	0
1632916187993	-37.088	14.152	1002.84	0.35	-0.28	-0.56	-498	234	-1695	0	0	0	0	0	0	0	0	0	0	0	0	0	0	0	0	0	0	146260	226986	0
1632916188003	-46.36	15.128	999.424	0.21	-0.28	-0.63	-502.5	237	-1698	0	0	0	0	0	0	0	0	0	0	0	0	0	0	0	0	0	0	146254	226982	0
1632916188013	-39.528	12.2	1002.84	0.28	-0.21	-0.63	-507	238.5	-1690.5	0	0	0	0	0	0	0	0	0	0	0	0	0	0	0	0	0	0	146249	226980	0
1632916188023	-39.528	20.008	1001.864	0.42	-0.35	-0.77	-507	235.5	-1689	0	0	0	0	0	0	0	0	0	0	0	0	0	0	0	0	0	0	146251	227002	0
1632916188033	-33.672	18.056	1001.376	0.35	-0.35	-0.56	-502.5	235.5	-1689	0	0	0	0	0	0	0	0	0	0	0	0	0	0	0	0	0	0	146235	227006	0
1632916188043	-38.064	19.52	999.912	0.28	-0.28	-0.56	-499.5	238.5	-1692	0	0	0	0	0	0	0	0	0	0	0	0	0	0	0	0	0	0	146223	227002	0
1632916188053	-40.016	13.176	1005.28	0.42	-0.35	-0.63	-502.5	241.5	-1693.5	0	0	0	0	0	0	0	0	0	0	0	0	0	0	0	0	0	0	146209	226994	0
1632916188063	-36.6	14.152	1004.792	0.21	-0.28	-0.63	-505.5	238.5	-1696.5	0	0	0	0	0	0	0	0	0	0	0	0	0	0	0	0	0	0	146190	226957	0
1632916188073	-35.624	16.104	1002.84	0.35	-0.42	-0.7	-504	235.5	-1698	0	0	0	0	0	0	0	0	0	0	0	0	0	0	0	0	0	0	146161	226935	0
1632916188083	-43.432	14.64	997.472	0.28	-0.21	-0.63	-507	237	-1692	0	0	0	0	0	0	0	0	0	0	0	0	0	0	0	0	0	0	146163	226884	0
1632916188093	-37.088	15.128	1003.816	0.28	-0.21	-0.63	-505.5	240	-1690.5	0	0	0	0	0	0	0	0	0	0	0	0	0	0	0	0	0	0	146157	226841	0
1632916188103	-39.04	18.544	999.424	0.42	-0.28	-0.63	-505.5	238.5	-1695	0	0	0	0	0	0	0	0	0	0	0	0	0	0	0	0	0	0	146146	226826	0
1632916188113	-36.112	19.52	1004.304	0.35	-0.28	-0.56	-502.5	235.5	-1692	0	0	0	0	0	0	0	0	0	0	0	0	0	0	0	0	0	0	146083	226800	0
1632916188123	-31.72	15.128	1001.864	0.07	-0.42	-0.63	-498	231	-1686	0	0	0	0	0	0	0	0	0	0	0	0	0	0	0	0	0	0	146111	226788	0
1632916188133	-43.92	13.176	998.448	0.35	-0.28	-0.63	-501	231	-1687.5	0	0	0	0	0	0	0	0	0	0	0	0	0	0	0	0	0	0	146110	226767	0
1632916188143	-34.648	17.568	1000.4	0.35	-0.21	-0.63	-501	241.5	-1690.5	0	0	0	0	0	0	0	0	0	0	0	0	0	0	0	0	0	0	146099	226771	0
1632916188153	-35.624	17.568	1002.84	0.35	-0.35	-0.63	-502.5	238.5	-1687.5	0	0	0	0	0	0	0	0	0	0	0	0	0	0	0	0	0	0	146107	226774	0
1632916188163	-41.48	14.64	1000.888	0.28	-0.28	-0.56	-502.5	231	-1690.5	0	0	0	0	0	0	0	0	0	0	0	0	0	0	0	0	0	0	146107	226783	0
1632916188173	-46.848	18.056	1001.864	0.35	-0.21	-0.63	-502.5	235.5	-1695	0	0	0	0	0	0	0	0	0	0	0	0	0	0	0	0	0	0	146112	226793	0
1632916188183	-53.192	22.448	1003.816	0.35	-0.28	-0.56	-507	238.5	-1684.5	0	0	0	0	0	0	0	0	0	0	0	0	0	0	0	0	0	0	146131	226798	0
1632916188193	-38.552	15.616	1005.28	0.28	-0.35	-0.7	-504	238.5	-1687.5	0	0	0	0	0	0	0	0	0	0	0	0	0	0	0	0	0	0	146134	226794	0
1632916188203	-35.624	12.2	997.96	0.28	-0.21	-0.56	-502.5	244.5	-1687.5	0	0	0	0	0	0	0	0	0	0	0	0	0	0	0	0	0	0	146148	226794	0
1632916188213	-38.064	10.248	1002.352	0.21	-0.28	-0.63	-507	244.5	-1690.5	0	0	0	0	0	0	0	0	0	0	0	0	0	0	0	0	0	0	146141	226823	0
1632916188223	-39.04	15.616	990.64	0.49	-0.21	-0.7	-505.5	241.5	-1698	0	0	0	0	0	0	0	0	0	0	0	0	0	0	0	0	0	0	146158	226831	0
1632916188233	-41.968	9.76	998.936	0.28	-0.21	-0.63	-502.5	235.5	-1696.5	0	0	0	0	0	0	0	0	0	0	0	0	0	0	0	0	0	0	146175	226854	0
1632916188243	-36.6	15.616	998.936	0.28	-0.35	-0.63	-505.5	238.5	-1693.5	0	0	0	0	0	0	0	0	0	0	0	0	0	0	0	0	0	0	146181	226867	0
1632916188253	-47.336	20.496	1000.4	0.42	-0.21	-0.56	-501	240	-1689	0	0	0	0	0	0	0	0	0	0	0	0	0	0	0	0	0	0	146185	226896	0
1632916188263	-41.968	15.616	1002.352	0.35	-0.28	-0.56	-496.5	240	-1690.5	0	0	0	0	0	0	0	0	0	0	0	0	0	0	0	0	0	0	146185	226909	0
1632916188273	-40.504	22.448	1003.328	0.35	-0.21	-0.7	-499.5	240	-1692	0	0	0	0	0	0	0	0	0	0	0	0	0	0	0	0	0	0	146195	226922	0
1632916188283	-33.672	12.688	1007.72	0.35	-0.35	-0.56	-499.5	238.5	-1692	0	0	0	0	0	0	0	0	0	0	0	0	0	0	0	0	0	0	146204	226928	0
1632916188293	-39.528	10.736	999.424	0.35	-0.21	-0.63	-504	240	-1687.5	0	0	0	0	0	0	0	0	0	0	0	0	0	0	0	0	0	0	146205	226941	0
1632916188303	-36.112	15.616	1002.352	0.28	-0.28	-0.56	-502.5	241.5	-1683	0	0	0	0	0	0	0	0	0	0	0	0	0	0	0	0	0	0	146213	226954	0
1632916188313	-38.552	20.984	1005.768	0.28	-0.21	-0.56	-499.5	237	-1687.5	0	0	0	0	0	0	0	0	0	0	0	0	0	0	0	0	0	0	146228	226983	0
1632916188323	-37.576	17.568	1002.84	0.35	-0.28	-0.56	-498	235.5	-1692	0	0	0	0	0	0	0	0	0	0	0	0	0	0	0	0	0	0	146189	227019	0
1632916188333	-42.944	12.688	999.912	0.21	-0.28	-0.56	-499.5	235.5	-1690.5	0	0	0	0	0	0	0	0	0	0	0	0	0	0	0	0	0	0	146222	227011	0
1632916188343	-45.872	18.056	999.912	0.35	-0.21	-0.63	-504	237	-1689	0	0	0	0	0	0	0	0	0	0	0	0	0	0	0	0	0	0	146215	227037	0
1632916188353	-40.992	15.616	1005.28	0.35	-0.35	-0.56	-501	241.5	-1693.5	0	0	0	0	0	0	0	0	0	0	0	0	0	0	0	0	0	0	146193	227025	0
1632916188363	-40.504	18.056	997.472	0.28	-0.28	-0.56	-501	243	-1692	0	0	0	0	0	0	0	0	0	0	0	0	0	0	0	0	0	0	146204	227043	0
1632916188373	-46.36	9.272	998.936	0.42	-0.07	-0.63	-499.5	240	-1689	0	0	0	0	0	0	0	0	0	0	0	0	0	0	0	0	0	0	146191	227058	0
1632916188383	-36.112	14.152	1000.888	0.28	-0.35	-0.63	-504	238.5	-1690.5	0	0	0	0	0	0	0	0	0	0	0	0	0	0	0	0	0	0	146205	227075	0
1632916188393	-37.576	18.056	997.472	0.28	-0.28	-0.63	-505.5	240	-1690.5	0	0	0	0	0	0	0	0	0	0	0	0	0	0	0	0	0	0	146204	227076	0
1632916188403	-37.088	19.032	999.912	0.35	-0.21	-0.63	-501	240	-1689	0	0	0	0	0	0	0	0	0	0	0	0	0	0	0	0	0	0	146207	227099	0
1632916188413	-40.504	27.328	997.472	0.28	-0.35	-0.63	-504	232.5	-1689	0	0	0	0	0	0	0	0	0	0	0	0	0	0	0	0	0	0	146189	227109	0
1632916188424	-36.6	18.056	1002.352	0.35	-0.28	-0.63	-498	229.5	-1690.5	0	0	0	0	0	0	0	0	0	0	0	0	0	0	0	0	0	0	146195	227126	0
1632916188434	-40.504	15.616	1005.768	0.21	-0.21	-0.56	-492	232.5	-1690.5	0	0	0	0	0	0	0	0	0	0	0	0	0	0	0	0	0	0	146182	227144	0
1632916188444	-42.944	18.544	999.912	0.35	-0.14	-0.56	-502.5	237	-1695	0	0	0	0	0	0	0	0	0	0	0	0	0	0	0	0	0	0	146193	227152	0
1632916188454	-34.16	16.592	1004.792	0.35	-0.28	-0.7	-507	238.5	-1695	0	0	0	0	0	0	0	0	0	0	0	0	0	0	0	0	0	0	146193	227152	0
1632916188464	-37.088	20.008	1003.816	0.21	-0.28	-0.63	-502.5	237	-1692	0	0	0	0	0	0	0	0	0	0	0	0	0	0	0	0	0	0	146181	227182	0
1632916188474	-40.016	17.568	1002.84	0.35	-0.28	-0.63	-501	241.5	-1692	0	0	0	0	0	0	0	0	0	0	0	0	0	0	0	0	0	0	146187	227190	0
1632916188484	-37.088	15.128	1000.888	0.28	-0.28	-0.7	-502.5	240	-1690.5	0	0	0	0	0	0	0	0	0	0	0	0	0	0	0	0	0	0	146199	227216	0
1632916188494	-33.184	24.4	996.496	0.28	-0.28	-0.56	-507	237	-1692	0	0	0	0	0	0	0	0	0	0	0	0	0	0	0	0	0	0	146204	227238	0
1632916188504	-32.696	18.056	1002.352	0.35	-0.35	-0.63	-502.5	237	-1689	0	0	0	0	0	0	0	0	0	0	0	0	0	0	0	0	0	0	146218	227272	0
1632916188514	-39.528	11.712	998.936	0.28	-0.21	-0.56	-496.5	234	-1695	0	0	0	0	0	0	0	0	0	0	0	0	0	0	0	0	0	0	146215	227283	0
1632916188524	-40.504	20.984	996.496	0.35	-0.21	-0.63	-501	234	-1695	0	0	0	0	0	0	0	0	0	0	0	0	0	0	0	0	0	0	146219	227307	0
1632916188534	-40.992	11.712	1000.4	0.28	-0.21	-0.63	-504	237	-1690.5	0	0	0	0	0	0	0	0	0	0	0	0	0	0	0	0	0	0	146235	227333	0
1632916188544	-44.408	17.08	998.936	0.28	-0.28	-0.56	-496.5	238.5	-1689	0	0	0	0	0	0	0	0	0	0	0	0	0	0	0	0	0	0	146229	227369	0
1632916188554	-35.624	16.592	998.936	0.28	-0.35	-0.56	-492	231	-1692	0	0	0	0	0	0	0	0	0	0	0	0	0	0	0	0	0	0	146239	227366	0
1632916188564	-29.768	11.224	1003.816	0.28	-0.35	-0.63	-496.5	226.5	-1692	0	0	0	0	0	0	0	0	0	0	0	0	0	0	0	0	0	0	146261	227388	0
1632916188574	-36.112	19.032	1002.84	0.42	-0.35	-0.56	-501	235.5	-1686	0	0	0	0	0	0	0	0	0	0	0	0	0	0	0	0	0	0	146269	227400	0
1632916188584	-32.208	11.712	996.496	0.21	-0.28	-0.56	-505.5	243	-1689	0	0	0	0	0	0	0	0	0	0	0	0	0	0	0	0	0	0	146294	227411	0
1632916188594	-32.696	18.544	1001.864	0.28	-0.35	-0.63	-505.5	243	-1696.5	0	0	0	0	0	0	0	0	0	0	0	0	0	0	0	0	0	0	146288	227439	0
1632916188604	-37.576	12.2	995.52	0.35	-0.35	-0.56	-501	238.5	-1695	0	0	0	0	0	0	0	0	0	0	0	0	0	0	0	0	0	0	146305	227450	0
1632916188614	-37.576	17.08	1000.888	0.28	-0.21	-0.56	-505.5	229.5	-1693.5	0	0	0	0	0	0	0	0	0	0	0	0	0	0	0	0	0	0	146303	227473	0
1632916188624	-42.456	20.496	1006.744	0.35	-0.28	-0.7	-501	229.5	-1692	0	0	0	0	0	0	0	0	0	0	0	0	0	0	0	0	0	0	146323	227467	0
1632916188634	-47.336	15.128	998.936	0.28	-0.21	-0.7	-498	234	-1690.5	0	0	0	0	0	0	0	0	0	0	0	0	0	0	0	0	0	0	146317	227485	0
1632916188644	-48.8	16.104	1005.28	0.28	-0.35	-0.63	-504	237	-1689	0	0	0	0	0	0	0	0	0	0	0	0	0	0	0	0	0	0	146328	227501	0
1632916188654	-38.552	21.472	1003.328	0.28	-0.28	-0.56	-501	238.5	-1692	0	0	0	0	0	0	0	0	0	0	0	0	0	0	0	0	0	0	146333	227501	0
1632916188664	-44.408	22.936	999.424	0.35	-0.21	-0.56	-502.5	240	-1693.5	0	0	0	0	0	0	0	0	0	0	0	0	0	0	0	0	0	0	146347	227505	0
1632916188674	-38.064	18.544	1001.864	0.35	-0.28	-0.63	-502.5	238.5	-1690.5	0	0	0	0	0	0	0	0	0	0	0	0	0	0	0	0	0	0	146359	227526	0
1632916188684	-39.04	20.984	1002.352	0.35	-0.28	-0.63	-501	235.5	-1689	0	0	0	0	0	0	0	0	0	0	0	0	0	0	0	0	0	0	146365	227518	0
1632916188694	-40.504	17.08	1000.888	0.42	-0.28	-0.63	-502.5	241.5	-1690.5	0	0	0	0	0	0	0	0	0	0	0	0	0	0	0	0	0	0	146355	227542	0
1632916188704	-40.504	19.032	1006.256	0.28	-0.21	-0.63	-504	241.5	-1692	0	0	0	0	0	0	0	0	0	0	0	0	0	0	0	0	0	0	146357	227552	0
1632916188714	-44.896	15.128	1002.84	0.28	-0.21	-0.63	-499.5	240	-1695	0	0	0	0	0	0	0	0	0	0	0	0	0	0	0	0	0	0	146347	227561	0
1632916188724	-31.72	17.08	1003.328	0.28	-0.35	-0.56	-495	238.5	-1693.5	0	0	0	0	0	0	0	0	0	0	0	0	0	0	0	0	0	0	146350	227554	0
1632916188734	-38.064	14.152	1000.4	0.35	-0.28	-0.56	-498	238.5	-1690.5	0	0	0	0	0	0	0	0	0	0	0	0	0	0	0	0	0	0	146337	227559	0
1632916188744	-40.016	16.104	1006.256	0.35	-0.35	-0.56	-499.5	240	-1690.5	0	0	0	0	0	0	0	0	0	0	0	0	0	0	0	0	0	0	146337	227564	0
1632916188754	-46.848	18.056	996.008	0.28	-0.21	-0.63	-502.5	244.5	-1689	0	0	0	0	0	0	0	0	0	0	0	0	0	0	0	0	0	0	146338	227544	0
1632916188764	-33.672	19.032	996.984	0.35	-0.28	-0.7	-505.5	243	-1692	0	0	0	0	0	0	0	0	0	0	0	0	0	0	0	0	0	0	146331	227530	0
1632916188774	-42.944	22.448	1002.84	0.28	-0.42	-0.56	-499.5	232.5	-1696.5	0	0	0	0	0	0	0	0	0	0	0	0	0	0	0	0	0	0	146324	227498	0
1632916188784	-38.064	20.008	996.008	0.35	-0.21	-0.63	-498	232.5	-1693.5	0	0	0	0	0	0	0	0	0	0	0	0	0	0	0	0	0	0	146306	227481	0
1632916188794	-46.36	20.008	1003.816	0.28	-0.28	-0.49	-501	235.5	-1689	0	0	0	0	0	0	0	0	0	0	0	0	0	0	0	0	0	0	146282	227440	0
1632916188804	-45.872	21.472	1006.744	0.21	-0.35	-0.7	-502.5	241.5	-1687.5	0	0	0	0	0	0	0	0	0	0	0	0	0	0	0	0	0	0	146306	227404	0
1632916188814	-40.992	15.128	1002.352	0.42	-0.21	-0.63	-508.5	238.5	-1686	0	0	0	0	0	0	0	0	0	0	0	0	0	0	0	0	0	0	146328	227397	0
1632916188824	-46.848	13.664	1004.792	0.28	-0.28	-0.56	-508.5	238.5	-1687.5	0	0	0	0	0	0	0	0	0	0	0	0	0	0	0	0	0	0	146327	227394	0
1632916188834	-43.92	19.032	999.424	0.28	-0.21	-0.56	-507	238.5	-1690.5	0	0	0	0	0	0	0	0	0	0	0	0	0	0	0	0	0	0	146330	227394	0
1632916188844	-41.48	19.52	998.448	0.35	-0.28	-0.63	-498	235.5	-1692	0	0	0	0	0	0	0	0	0	0	0	0	0	0	0	0	0	0	146321	227372	0
1632916188854	-41.968	23.424	1002.84	0.35	-0.21	-0.56	-496.5	241.5	-1693.5	0	0	0	0	0	0	0	0	0	0	0	0	0	0	0	0	0	0	146316	227379	0
1632916188864	-36.6	15.616	997.472	0.21	-0.28	-0.49	-502.5	243	-1690.5	0	0	0	0	0	0	0	0	0	0	0	0	0	0	0	0	0	0	146312	227388	0
1632916188874	-29.768	18.544	996.008	0.35	-0.28	-0.63	-499.5	240	-1693.5	0	0	0	0	0	0	0	0	0	0	0	0	0	0	0	0	0	0	146313	227394	0
1632916188884	-42.456	11.224	995.52	0.28	-0.21	-0.63	-502.5	240	-1693.5	0	0	0	0	0	0	0	0	0	0	0	0	0	0	0	0	0	0	146307	227433	0
1632916188894	-40.504	17.568	1003.328	0.28	-0.35	-0.56	-507	241.5	-1695	0	0	0	0	0	0	0	0	0	0	0	0	0	0	0	0	0	0	146313	227439	0
1632916188904	-30.256	20.008	1002.84	0.42	-0.28	-0.63	-501	243	-1695	0	0	0	0	0	0	0	0	0	0	0	0	0	0	0	0	0	0	146331	227468	0
1632916188914	-40.016	19.032	1004.304	0.28	-0.28	-0.63	-501	241.5	-1689	0	0	0	0	0	0	0	0	0	0	0	0	0	0	0	0	0	0	146320	227478	0
1632916188924	-36.6	20.008	1003.816	0.28	-0.28	-0.63	-496.5	235.5	-1687.5	0	0	0	0	0	0	0	0	0	0	0	0	0	0	0	0	0	0	146328	227486	0
1632916188934	-38.552	17.568	996.984	0.35	-0.28	-0.56	-496.5	231	-1692	0	0	0	0	0	0	0	0	0	0	0	0	0	0	0	0	0	0	146342	227514	0
1632916188944	-32.208	20.984	1000.888	0.28	-0.28	-0.7	-501	235.5	-1690.5	0	0	0	0	0	0	0	0	0	0	0	0	0	0	0	0	0	0	146335	227534	0
1632916188954	-43.432	11.224	1000.4	0.42	-0.21	-0.63	-505.5	237	-1690.5	0	0	0	0	0	0	0	0	0	0	0	0	0	0	0	0	0	0	146346	227567	0
1632916188964	-33.184	16.592	1000.888	0.35	-0.28	-0.63	-508.5	234	-1687.5	0	0	0	0	0	0	0	0	0	0	0	0	0	0	0	0	0	0	146353	227575	0
1632916188974	-32.696	13.664	996.984	0.28	-0.35	-0.7	-501	235.5	-1687.5	0	0	0	0	0	0	0	0	0	0	0	0	0	0	0	0	0	0	146349	227609	0
1632916188984	-37.088	15.616	1000.888	0.35	-0.21	-0.56	-502.5	238.5	-1693.5	0	0	0	0	0	0	0	0	0	0	0	0	0	0	0	0	0	0	146343	227606	0
1632916188994	-44.408	22.448	1002.352	0.28	-0.21	-0.7	-505.5	238.5	-1693.5	0	0	0	0	0	0	0	0	0	0	0	0	0	0	0	0	0	0	146335	227619	0
1632916189004	-37.576	16.592	1003.328	0.35	-0.21	-0.63	-502.5	237	-1693.5	0	0	0	0	0	0	0	0	0	0	0	0	0	0	0	0	0	0	146332	227624	0
1632916189014	-42.944	20.008	1000.888	0.21	-0.35	-0.7	-504	235.5	-1696.5	0	0	0	0	0	0	0	0	0	0	0	0	0	0	0	0	0	0	146348	227641	0
1632916189024	-39.528	17.08	1006.256	0.35	-0.21	-0.63	-502.5	237	-1693.5	0	0	0	0	0	0	0	0	0	0	0	0	0	0	0	0	0	0	146349	227646	0
1632916189034	-39.04	20.008	993.568	0.28	-0.28	-0.7	-501	235.5	-1687.5	0	0	0	0	0	0	0	0	0	0	0	0	0	0	0	0	0	0	146330	227631	0
1632916189044	-40.504	13.664	1001.376	0.35	-0.35	-0.7	-498	235.5	-1687.5	0	0	0	0	0	0	0	0	0	0	0	0	0	0	0	0	0	0	146328	227635	0
1632916189054	-46.36	18.056	1003.328	0.35	-0.28	-0.56	-496.5	231	-1695	0	0	0	0	0	0	0	0	0	0	0	0	0	0	0	0	0	0	146331	227635	0
1632916189064	-42.944	22.936	1001.376	0.35	-0.35	-0.63	-505.5	229.5	-1693.5	0	0	0	0	0	0	0	0	0	0	0	0	0	0	0	0	0	0	146328	227614	0
1632916189074	-36.112	15.128	1005.28	0.28	-0.28	-0.56	-505.5	237	-1692	0	0	0	0	0	0	0	0	0	0	0	0	0	0	0	0	0	0	146341	227598	0
1632916189084	-40.016	9.76	1001.864	0.21	-0.28	-0.63	-502.5	235.5	-1695	0	0	0	0	0	0	0	0	0	0	0	0	0	0	0	0	0	0	146322	227602	0
1632916189094	-40.504	13.664	999.912	0.28	-0.21	-0.63	-499.5	237	-1689	0	0	0	0	0	0	0	0	0	0	0	0	0	0	0	0	0	0	146302	227581	0
1632916189104	-36.6	13.664	1006.256	0.28	-0.21	-0.63	-505.5	238.5	-1693.5	0	0	0	0	0	0	0	0	0	0	0	0	0	0	0	0	0	0	146296	227579	0
1632916189114	-36.112	21.472	1001.864	0.35	-0.28	-0.56	-508.5	237	-1696.5	0	0	0	0	0	0	0	0	0	0	0	0	0	0	0	0	0	0	146307	227600	0
1632916189124	-35.624	20.496	1002.84	0.21	-0.21	-0.63	-507	235.5	-1696.5	0	0	0	0	0	0	0	0	0	0	0	0	0	0	0	0	0	0	146299	227585	0
1632916189134	-36.112	22.448	1005.768	0.42	-0.35	-0.7	-504	234	-1695	0	0	0	0	0	0	0	0	0	0	0	0	0	0	0	0	0	0	146307	227597	0
1632916189144	-39.528	24.4	1004.792	0.28	-0.21	-0.63	-501	241.5	-1689	0	0	0	0	0	0	0	0	0	0	0	0	0	0	0	0	0	0	146296	227602	0
1632916189154	-39.04	15.616	1000.4	0.28	-0.28	-0.63	-504	240	-1687.5	0	0	0	0	0	0	0	0	0	0	0	0	0	0	0	0	0	0	146290	227594	0
1632916189164	-40.992	20.008	1000.888	0.35	-0.28	-0.63	-505.5	234	-1689	0	0	0	0	0	0	0	0	0	0	0	0	0	0	0	0	0	0	146309	227607	0
1632916189174	-45.872	15.128	1003.816	0.42	-0.35	-0.63	-498	232.5	-1695	0	0	0	0	0	0	0	0	0	0	0	0	0	0	0	0	0	0	146294	227621	0
1632916189184	-27.328	16.104	1003.816	0.35	-0.28	-0.63	-502.5	234	-1693.5	0	0	0	0	0	0	0	0	0	0	0	0	0	0	0	0	0	0	146279	227604	0
1632916189194	-40.504	21.472	999.424	0.28	-0.21	-0.63	-508.5	232.5	-1686	0	0	0	0	0	0	0	0	0	0	0	0	0	0	0	0	0	0	146298	227605	0
1632916189204	-47.824	20.984	996.984	0.28	-0.28	-0.63	-505.5	237	-1692	0	0	0	0	0	0	0	0	0	0	0	0	0	0	0	0	0	0	146289	227606	0
1632916189214	-39.04	19.52	1001.376	0.42	-0.35	-0.56	-502.5	238.5	-1690.5	0	0	0	0	0	0	0	0	0	0	0	0	0	0	0	0	0	0	146293	227603	0
1632916189224	-43.92	10.736	1001.864	0.28	-0.35	-0.63	-502.5	238.5	-1690.5	0	0	0	0	0	0	0	0	0	0	0	0	0	0	0	0	0	0	146305	227627	0
1632916189234	-40.504	15.616	999.424	0.28	-0.28	-0.63	-496.5	243	-1687.5	0	0	0	0	0	0	0	0	0	0	0	0	0	0	0	0	0	0	146318	227643	0
1632916189244	-34.648	15.616	1001.864	0.35	-0.21	-0.56	-499.5	232.5	-1689	0	0	0	0	0	0	0	0	0	0	0	0	0	0	0	0	0	0	146309	227638	0
1632916189254	-40.504	12.2	1004.792	0.21	-0.28	-0.56	-508.5	231	-1701	0	0	0	0	0	0	0	0	0	0	0	0	0	0	0	0	0	0	146307	227658	0
1632916189265	-40.016	21.472	998.936	0.28	-0.21	-0.63	-508.5	240	-1695	0	0	0	0	0	0	0	0	0	0	0	0	0	0	0	0	0	0	146319	227669	0
1632916189275	-43.92	14.152	1001.376	0.21	-0.14	-0.56	-505.5	238.5	-1689	0	0	0	0	0	0	0	0	0	0	0	0	0	0	0	0	0	0	146307	227667	0
1632916189285	-34.16	19.52	994.544	0.42	-0.35	-0.63	-502.5	232.5	-1689	0	0	0	0	0	0	0	0	0	0	0	0	0	0	0	0	0	0	146310	227682	0
1632916189295	-35.624	11.712	999.912	0.28	-0.42	-0.56	-499.5	237	-1693.5	0	0	0	0	0	0	0	0	0	0	0	0	0	0	0	0	0	0	146323	227692	0
1632916189305	-46.36	18.056	1005.768	0.35	-0.21	-0.63	-501	240	-1690.5	0	0	0	0	0	0	0	0	0	0	0	0	0	0	0	0	0	0	146322	227688	0
1632916189315	-34.16	15.616	1004.792	0.28	-0.28	-0.63	-501	235.5	-1686	0	0	0	0	0	0	0	0	0	0	0	0	0	0	0	0	0	0	146331	227693	0
1632916189325	-41.968	16.104	1000.888	0.21	-0.28	-0.63	-501	238.5	-1692	0	0	0	0	0	0	0	0	0	0	0	0	0	0	0	0	0	0	146307	227715	0
1632916189335	-34.648	12.2	993.08	0.28	-0.28	-0.56	-504	240	-1696.5	0	0	0	0	0	0	0	0	0	0	0	0	0	0	0	0	0	0	146327	227726	0
1632916189345	-40.504	19.52	1002.352	0.28	-0.42	-0.63	-504	238.5	-1695	0	0	0	0	0	0	0	0	0	0	0	0	0	0	0	0	0	0	146334	227717	0
1632916189355	-44.896	13.664	1000.4	0.28	-0.28	-0.63	-499.5	240	-1698	0	0	0	0	0	0	0	0	0	0	0	0	0	0	0	0	0	0	146360	227727	0
1632916189365	-40.992	20.008	1002.352	0.14	-0.28	-0.63	-498	241.5	-1693.5	0	0	0	0	0	0	0	0	0	0	0	0	0	0	0	0	0	0	146357	227728	0
1632916189375	-40.992	13.664	999.424	0.35	-0.28	-0.56	-504	244.5	-1692	0	0	0	0	0	0	0	0	0	0	0	0	0	0	0	0	0	0	146357	227737	0
1632916189385	-43.432	16.592	1001.864	0.35	-0.35	-0.63	-507	243	-1687.5	0	0	0	0	0	0	0	0	0	0	0	0	0	0	0	0	0	0	146363	227744	0
1632916189395	-32.208	19.52	1001.376	0.21	-0.28	-0.63	-507	238.5	-1689	0	0	0	0	0	0	0	0	0	0	0	0	0	0	0	0	0	0	146354	227749	0
1632916189405	-42.456	18.544	1006.256	0.35	-0.21	-0.56	-502.5	234	-1692	0	0	0	0	0	0	0	0	0	0	0	0	0	0	0	0	0	0	146358	227755	0
1632916189415	-42.456	17.08	999.424	0.28	-0.28	-0.63	-504	234	-1689	0	0	0	0	0	0	0	0	0	0	0	0	0	0	0	0	0	0	146333	227726	0
1632916189425	-38.552	25.376	1003.816	0.35	-0.35	-0.63	-498	238.5	-1690.5	0	0	0	0	0	0	0	0	0	0	0	0	0	0	0	0	0	0	146367	227773	0
1632916189435	-41.48	12.688	1000.4	0.42	-0.28	-0.7	-495	238.5	-1689	0	0	0	0	0	0	0	0	0	0	0	0	0	0	0	0	0	0	146365	227777	0
1632916189445	-33.184	17.08	1005.768	0.28	-0.21	-0.49	-499.5	240	-1684.5	0	0	0	0	0	0	0	0	0	0	0	0	0	0	0	0	0	0	146366	227797	0
1632916189455	-36.6	20.008	996.984	0.07	-0.35	-0.63	-498	240	-1686	0	0	0	0	0	0	0	0	0	0	0	0	0	0	0	0	0	0	146362	227794	0
1632916189465	-38.552	17.568	1000.888	0.21	-0.28	-0.63	-504	241.5	-1692	0	0	0	0	0	0	0	0	0	0	0	0	0	0	0	0	0	0	146372	227801	0
1632916189475	-30.744	15.616	1002.84	0.49	-0.28	-0.63	-502.5	241.5	-1692	0	0	0	0	0	0	0	0	0	0	0	0	0	0	0	0	0	0	146381	227796	0
1632916189485	-39.528	15.616	1000.888	0.35	-0.28	-0.63	-502.5	237	-1686	0	0	0	0	0	0	0	0	0	0	0	0	0	0	0	0	0	0	146398	227785	0
1632916189495	-37.576	17.568	998.936	0.35	-0.35	-0.7	-507	234	-1693.5	0	0	0	0	0	0	0	0	0	0	0	0	0	0	0	0	0	0	146401	227782	0
1632916189505	-43.432	11.712	1005.768	0.28	-0.28	-0.56	-499.5	234	-1684.5	0	0	0	0	0	0	0	0	0	0	0	0	0	0	0	0	0	0	146385	227750	0
1632916189515	-36.6	17.568	997.472	0.35	-0.28	-0.56	-498	237	-1683	0	0	0	0	0	0	0	0	0	0	0	0	0	0	0	0	0	0	146372	227720	0
1632916189525	-47.336	11.712	1004.304	0.28	-0.28	-0.63	-499.5	237	-1689	0	0	0	0	0	0	0	0	0	0	0	0	0	0	0	0	0	0	146355	227673	0
1632916189535	-39.528	15.616	1000.4	0.28	-0.21	-0.63	-493.5	237	-1689	0	0	0	0	0	0	0	0	0	0	0	0	0	0	0	0	0	0	146347	227670	0
1632916189545	-45.384	18.056	1004.792	0.28	-0.28	-0.63	-493.5	231	-1690.5	0	0	0	0	0	0	0	0	0	0	0	0	0	0	0	0	0	0	146341	227631	0
1632916189555	-44.896	20.496	998.936	0.28	-0.21	-0.56	-507	232.5	-1686	0	0	0	0	0	0	0	0	0	0	0	0	0	0	0	0	0	0	146350	227614	0
1632916189565	-37.088	18.544	1001.376	0.07	-0.35	-0.63	-507	240	-1686	0	0	0	0	0	0	0	0	0	0	0	0	0	0	0	0	0	0	146342	227607	0
1632916189575	-39.528	15.616	1002.84	0.49	-0.21	-0.63	-499.5	234	-1689	0	0	0	0	0	0	0	0	0	0	0	0	0	0	0	0	0	0	146353	227613	0
1632916189585	-36.112	19.52	999.424	0.35	-0.28	-0.56	-499.5	235.5	-1695	0	0	0	0	0	0	0	0	0	0	0	0	0	0	0	0	0	0	146363	227629	0
1632916189595	-42.456	18.544	999.424	0.28	-0.35	-0.63	-502.5	238.5	-1690.5	0	0	0	0	0	0	0	0	0	0	0	0	0	0	0	0	0	0	146356	227637	0
1632916189605	-42.944	19.52	1002.84	0.28	-0.28	-0.63	-508.5	235.5	-1693.5	0	0	0	0	0	0	0	0	0	0	0	0	0	0	0	0	0	0	146351	227656	0
1632916189615	-41.968	17.08	997.472	0.42	-0.42	-0.7	-502.5	235.5	-1692	0	0	0	0	0	0	0	0	0	0	0	0	0	0	0	0	0	0	146364	227695	0
1632916189625	-39.528	11.224	1000.888	0.28	-0.28	-0.63	-495	241.5	-1690.5	0	0	0	0	0	0	0	0	0	0	0	0	0	0	0	0	0	0	146362	227698	0
1632916189635	-36.6	13.176	1000.888	0.28	-0.35	-0.56	-498	238.5	-1689	0	0	0	0	0	0	0	0	0	0	0	0	0	0	0	0	0	0	146382	227737	0
1632916189645	-39.528	20.008	1003.816	0.28	-0.21	-0.63	-505.5	238.5	-1690.5	0	0	0	0	0	0	0	0	0	0	0	0	0	0	0	0	0	0	146422	227785	0
1632916189655	-35.624	13.664	1003.328	0.28	-0.42	-0.56	-508.5	240	-1696.5	0	0	0	0	0	0	0	0	0	0	0	0	0	0	0	0	0	0	146459	227826	0
1632916189665	-41.968	15.616	1003.328	0.07	-0.42	-0.56	-502.5	237	-1698	0	0	0	0	0	0	0	0	0	0	0	0	0	0	0	0	0	0	146470	227875	0
1632916189675	-35.624	26.352	1005.28	0.42	-0.21	-0.63	-495	235.5	-1692	0	0	0	0	0	0	0	0	0	0	0	0	0	0	0	0	0	0	146500	227905	0
1632916189685	-35.624	14.64	1004.304	0.56	-0.28	-0.63	-495	238.5	-1684.5	0	0	0	0	0	0	0	0	0	0	0	0	0	0	0	0	0	0	146503	227927	0
