Timestamp	Acc.X	Acc.Y	Acc.Z	Gyro.X	Gyro.Y	Gyro.Z	Magn.X	Magn.Y	Magn.Z	Distance.x	Distance.y	P.0	P.1	P.2	P.3	P.4	P.5	P.6	P.7	P.8	P.9	P.10	P.11	P.12	P.13	P.14	P.15	PPG_RED.	PPG_IR.	PPG_GREEN.
1651657274196	-238.632	-94.184	1099.464	-2.8	-3.5	0	-48	190.5	-903	0	0	0	0	0	0	0	0	0	0	0	0	0	0	0	0	0	0	57539	57414	0
1651657274206	-63.928	-68.32	971.12	0	-4.9	-7.21	-36	24	-798	0	0	0	0	0	0	0	0	0	0	0	0	0	0	0	0	0	0	73886	73875	0
1651657274216	121.024	193.736	1158.512	-4.34	6.93	6.93	-40.5	7.5	-796.5	0	0	0	0	0	0	0	0	0	0	0	0	0	0	0	0	0	0	90269	90152	0
1651657274226	-53.68	-36.6	1003.816	-1.33	3.71	3.29	-40.5	6	-799.5	0	0	0	0	0	0	0	0	0	0	0	0	0	0	0	0	0	0	106578	106525	0
1651657274236	-31.232	-21.96	1005.28	0.35	-0.21	-0.84	-37.5	7.5	-798	0	0	0	0	0	0	0	0	0	0	0	0	0	0	0	0	0	0	123037	123125	0
1651657274246	-20.984	-24.4	1006.744	0.28	-0.28	-0.7	-37.5	9	-795	0	0	0	0	0	0	0	0	0	0	0	0	0	0	0	0	0	0	139458	139369	0
1651657274256	-37.576	-28.304	1008.208	0.28	-0.28	-0.63	-45	9	-796.5	0	0	0	0	0	0	0	0	0	0	0	0	0	0	0	0	0	0	155688	155800	0
1651657274266	-36.6	-23.912	1007.72	0.14	-0.28	-0.49	-42	6	-795	0	0	0	0	0	0	0	0	0	0	0	0	0	0	0	0	0	0	157176	172101	0
1651657274276	-33.184	-24.888	1006.256	0.28	-0.14	-0.49	-37.5	0	-792	0	0	0	0	0	0	0	0	0	0	0	0	0	0	0	0	0	0	157163	188647	0
1651657274286	-31.72	-20.984	1006.744	0.21	-0.28	-0.49	-37.5	1.5	-795	0	0	0	0	0	0	0	0	0	0	0	0	0	0	0	0	0	0	157121	204904	0
1651657274296	-38.064	-20.496	1008.696	0.35	-0.35	-0.63	-39	7.5	-796.5	0	0	0	0	0	0	0	0	0	0	0	0	0	0	0	0	0	0	157142	221339	0
1651657274306	-39.04	-22.936	1006.744	0.28	-0.28	-0.56	-39	4.5	-798	0	0	0	0	0	0	0	0	0	0	0	0	0	0	0	0	0	0	157120	237717	0
1651657274316	-33.672	-23.912	1008.696	0.42	-0.21	-0.63	-36	3	-801	0	0	0	0	0	0	0	0	0	0	0	0	0	0	0	0	0	0	157108	243604	0
1651657274326	-37.088	-15.616	1007.72	0.35	-0.28	-0.56	-36	9	-796.5	0	0	0	0	0	0	0	0	0	0	0	0	0	0	0	0	0	0	157088	243600	0
1651657274336	-33.184	-21.96	1006.744	0.35	-0.21	-0.56	-40.5	6	-793.5	0	0	0	0	0	0	0	0	0	0	0	0	0	0	0	0	0	0	157121	243585	0
1651657274346	-15.128	-28.304	1014.064	0.35	-0.21	0.63	-43.5	1.5	-789	0	0	0	0	0	0	0	0	0	0	0	0	0	0	0	0	0	0	157094	243574	0
1651657274356	-35.136	-17.568	1014.064	0.35	-0.21	2.17	-36	7.5	-798	0	0	0	0	0	0	0	0	0	0	0	0	0	0	0	0	0	0	157086	243567	0
1651657274366	-33.672	-20.496	1015.04	0.28	-0.07	0.77	-34.5	7.5	-801	0	0	0	0	0	0	0	0	0	0	0	0	0	0	0	0	0	0	157059	243572	0
1651657274376	-31.232	-21.96	1003.328	0.28	-0.28	0.63	-36	9	-793.5	0	0	0	0	0	0	0	0	0	0	0	0	0	0	0	0	0	0	157073	243550	0
1651657274386	-33.184	-23.424	996.984	0.28	-0.28	0.42	-37.5	12	-790.5	0	0	0	0	0	0	0	0	0	0	0	0	0	0	0	0	0	0	157066	243554	0
1651657274396	-43.432	-25.864	1004.792	0.28	-0.14	0.35	-39	9	-798	0	0	0	0	0	0	0	0	0	0	0	0	0	0	0	0	0	0	157064	243532	0
1651657274406	-34.16	-22.448	1003.816	0.21	-0.21	0.28	-34.5	9	-798	0	0	0	0	0	0	0	0	0	0	0	0	0	0	0	0	0	0	157032	243565	0
1651657274416	-32.208	-14.152	1004.304	0.35	-0.21	0.21	-34.5	9	-798	0	0	0	0	0	0	0	0	0	0	0	0	0	0	0	0	0	0	157063	243537	0
1651657274426	-29.768	-18.544	1003.816	0.28	-0.28	0.07	-36	10.5	-792	0	0	0	0	0	0	0	0	0	0	0	0	0	0	0	0	0	0	157045	243539	0
1651657274436	-41.48	-20.496	1009.672	0.35	-0.28	-0.07	-31.5	15	-792	0	0	0	0	0	0	0	0	0	0	0	0	0	0	0	0	0	0	157038	243525	0
1651657274446	-29.28	-21.96	1007.72	0.35	-0.28	-0.28	-31.5	10.5	-793.5	0	0	0	0	0	0	0	0	0	0	0	0	0	0	0	0	0	0	157006	243531	0
1651657274456	-37.088	-20.984	1004.792	0.35	-0.28	-0.42	-36	4.5	-798	0	0	0	0	0	0	0	0	0	0	0	0	0	0	0	0	0	0	157025	243514	0
1651657274466	-44.896	-20.984	1010.648	0.56	-0.07	-0.56	-36	7.5	-796.5	0	0	0	0	0	0	0	0	0	0	0	0	0	0	0	0	0	0	157008	243508	0
1651657274476	-34.16	-22.448	1009.184	0.56	-0.21	-0.63	-34.5	10.5	-793.5	0	0	0	0	0	0	0	0	0	0	0	0	0	0	0	0	0	0	157016	243517	0
1651657274486	-27.816	-16.592	1005.768	0.42	-0.21	-0.63	-36	3	-792	0	0	0	0	0	0	0	0	0	0	0	0	0	0	0	0	0	0	156979	243510	0
1651657274496	-35.136	-23.912	1008.696	0.28	-0.28	-0.63	-40.5	6	-796.5	0	0	0	0	0	0	0	0	0	0	0	0	0	0	0	0	0	0	157007	243496	0
1651657274506	-40.992	-24.888	1013.088	0.21	-0.28	-0.49	-39	13.5	-792	0	0	0	0	0	0	0	0	0	0	0	0	0	0	0	0	0	0	156995	243498	0
1651657274516	-30.744	-22.936	1006.256	0.14	-0.21	-0.63	-42	10.5	-790.5	0	0	0	0	0	0	0	0	0	0	0	0	0	0	0	0	0	0	156994	243499	0
1651657274526	-31.232	-20.008	1007.72	0.28	-0.21	-0.63	-43.5	7.5	-796.5	0	0	0	0	0	0	0	0	0	0	0	0	0	0	0	0	0	0	156961	243507	0
1651657274536	-37.576	-26.352	1009.184	0.35	-0.14	-0.63	-40.5	7.5	-798	0	0	0	0	0	0	0	0	0	0	0	0	0	0	0	0	0	0	156981	243495	0
1651657274546	-43.92	-27.328	1002.84	0.21	-0.14	-0.49	-40.5	3	-790.5	0	0	0	0	0	0	0	0	0	0	0	0	0	0	0	0	0	0	156985	243486	0
1651657274556	-26.352	-19.032	1007.72	0.28	-0.28	-0.63	-36	10.5	-792	0	0	0	0	0	0	0	0	0	0	0	0	0	0	0	0	0	0	156973	243479	0
1651657274566	-36.6	-10.736	1005.768	0.07	-0.35	-0.56	-33	16.5	-798	0	0	0	0	0	0	0	0	0	0	0	0	0	0	0	0	0	0	156935	243500	0
1651657274576	-34.648	-20.984	1007.72	0.07	-0.35	-0.56	-34.5	7.5	-801	0	0	0	0	0	0	0	0	0	0	0	0	0	0	0	0	0	0	156984	243483	0
1651657274586	-32.208	-22.448	1009.672	0.14	-0.35	-0.63	-39	9	-798	0	0	0	0	0	0	0	0	0	0	0	0	0	0	0	0	0	0	156955	243462	0
1651657274596	-36.112	-33.672	1007.72	0.28	-0.35	-0.56	-37.5	13.5	-798	0	0	0	0	0	0	0	0	0	0	0	0	0	0	0	0	0	0	156951	243467	0
1651657274606	-34.16	-16.592	1009.672	0.28	-0.28	-0.7	-39	12	-793.5	0	0	0	0	0	0	0	0	0	0	0	0	0	0	0	0	0	0	156932	243487	0
1651657274616	-30.256	-20.496	1007.232	0.21	-0.28	-0.56	-34.5	10.5	-792	0	0	0	0	0	0	0	0	0	0	0	0	0	0	0	0	0	0	156957	243463	0
1651657274626	-44.408	-21.472	1004.792	0.35	-0.21	-0.7	-36	9	-795	0	0	0	0	0	0	0	0	0	0	0	0	0	0	0	0	0	0	156910	243465	0
1651657274636	-56.12	-20.008	1008.208	0.21	-0.14	-1.05	-48	3	-798	0	0	0	0	0	0	0	0	0	0	0	0	0	0	0	0	0	0	156884	243444	0
1651657274646	-13.664	-11.712	1009.184	0.28	-0.14	-2.24	-45	1.5	-795	0	0	0	0	0	0	0	0	0	0	0	0	0	0	0	0	0	0	156862	243424	0
1651657274656	-21.472	-17.568	1006.256	0.28	-0.14	-1.47	-36	6	-792	0	0	0	0	0	0	0	0	0	0	0	0	0	0	0	0	0	0	156842	243404	0
1651657274666	-36.112	-23.424	1004.304	0.42	-0.14	-1.61	-36	7.5	-798	0	0	0	0	0	0	0	0	0	0	0	0	0	0	0	0	0	0	156834	243388	0
1651657274676	-37.088	-17.08	1005.28	0.56	-0.14	-1.4	-39	6	-796.5	0	0	0	0	0	0	0	0	0	0	0	0	0	0	0	0	0	0	156829	243365	0
1651657274686	-32.208	-20.008	1007.72	0.49	-0.07	-1.05	-39	9	-798	0	0	0	0	0	0	0	0	0	0	0	0	0	0	0	0	0	0	156805	243348	0
1651657274696	-36.112	-22.448	1008.696	0.42	-0.14	-0.63	-39	9	-796.5	0	0	0	0	0	0	0	0	0	0	0	0	0	0	0	0	0	0	156793	243336	0
1651657274706	-39.528	-27.328	1007.72	0.28	-0.28	-0.42	-37.5	7.5	-792	0	0	0	0	0	0	0	0	0	0	0	0	0	0	0	0	0	0	156793	243310	0
1651657274716	-36.112	-18.056	1005.768	0.21	-0.28	-0.14	-37.5	4.5	-793.5	0	0	0	0	0	0	0	0	0	0	0	0	0	0	0	0	0	0	156785	243290	0
1651657274726	-42.456	-24.888	1008.208	0.28	-0.28	0	-37.5	7.5	-799.5	0	0	0	0	0	0	0	0	0	0	0	0	0	0	0	0	0	0	156782	243256	0
1651657274736	-37.088	-20.496	1010.648	0.21	-0.21	-0.49	-40.5	4.5	-802.5	0	0	0	0	0	0	0	0	0	0	0	0	0	0	0	0	0	0	156782	243262	0
1651657274746	-41.968	-21.96	1007.232	0.28	-0.21	-0.77	-37.5	3	-802.5	0	0	0	0	0	0	0	0	0	0	0	0	0	0	0	0	0	0	156791	243247	0
1651657274756	-41.48	-18.544	1008.208	0.35	-0.28	-1.19	-37.5	10.5	-798	0	0	0	0	0	0	0	0	0	0	0	0	0	0	0	0	0	0	156773	243216	0
1651657274766	-42.944	-28.792	1004.304	0.35	-0.42	-1.26	-40.5	10.5	-792	0	0	0	0	0	0	0	0	0	0	0	0	0	0	0	0	0	0	156765	243214	0
1651657274776	-24.888	-18.056	1008.696	0.49	-0.21	-2.8	-39	4.5	-790.5	0	0	0	0	0	0	0	0	0	0	0	0	0	0	0	0	0	0	156753	243191	0
1651657274786	-44.896	-23.912	1004.792	0.63	0	-2.45	-39	4.5	-793.5	0	0	0	0	0	0	0	0	0	0	0	0	0	0	0	0	0	0	156754	243178	0
1651657274796	-37.576	-17.568	1009.184	0.77	-0.07	-3.08	-37.5	4.5	-795	0	0	0	0	0	0	0	0	0	0	0	0	0	0	0	0	0	0	156743	243187	0
1651657274806	-52.216	-20.984	1000.4	0.28	-0.14	-3.43	-37.5	6	-799.5	0	0	0	0	0	0	0	0	0	0	0	0	0	0	0	0	0	0	156741	243182	0
1651657274816	-49.288	-22.448	1007.72	0.35	-0.14	-4.97	-40.5	10.5	-802.5	0	0	0	0	0	0	0	0	0	0	0	0	0	0	0	0	0	0	156713	243174	0
1651657274827	-23.912	-23.912	1007.72	0.49	-0.07	-5.11	-42	12	-798	0	0	0	0	0	0	0	0	0	0	0	0	0	0	0	0	0	0	156697	243160	0
1651657274837	-9.76	-24.4	1011.624	0.49	-0.28	-2.66	-34.5	6	-799.5	0	0	0	0	0	0	0	0	0	0	0	0	0	0	0	0	0	0	156670	243154	0
1651657274847	-16.592	1.464	1054.08	0.14	0	2.66	-37.5	6	-802.5	0	0	0	0	0	0	0	0	0	0	0	0	0	0	0	0	0	0	156665	243141	0
1651657274857	-22.936	-14.152	1011.136	0.35	-0.21	1.05	-42	6	-798	0	0	0	0	0	0	0	0	0	0	0	0	0	0	0	0	0	0	156658	243129	0
1651657274867	-33.184	-21.472	1004.304	0.28	-0.28	0.21	-42	3	-790.5	0	0	0	0	0	0	0	0	0	0	0	0	0	0	0	0	0	0	156629	243117	0
1651657274877	-37.576	-21.96	1011.136	0.14	-0.28	0.14	-42	4.5	-790.5	0	0	0	0	0	0	0	0	0	0	0	0	0	0	0	0	0	0	156624	243117	0
1651657274887	-39.04	-21.96	1010.16	0.07	-0.28	0.84	-40.5	3	-796.5	0	0	0	0	0	0	0	0	0	0	0	0	0	0	0	0	0	0	156630	243116	0
1651657274897	-32.696	-17.08	1005.768	0.21	-0.21	1.19	-40.5	6	-801	0	0	0	0	0	0	0	0	0	0	0	0	0	0	0	0	0	0	156628	243107	0
1651657274907	-23.424	-14.152	1009.184	0.35	-0.14	0.14	-39	6	-799.5	0	0	0	0	0	0	0	0	0	0	0	0	0	0	0	0	0	0	156615	243108	0
1651657274917	-34.648	-20.008	1012.6	0.35	-0.28	-0.63	-36	6	-796.5	0	0	0	0	0	0	0	0	0	0	0	0	0	0	0	0	0	0	156608	243119	0
1651657274927	-36.6	-23.912	1001.376	0.28	-0.21	-0.63	-37.5	4.5	-793.5	0	0	0	0	0	0	0	0	0	0	0	0	0	0	0	0	0	0	156609	243094	0
1651657274937	-38.552	-29.28	1004.304	0.28	-0.28	-0.63	-40.5	1.5	-795	0	0	0	0	0	0	0	0	0	0	0	0	0	0	0	0	0	0	156618	243123	0
1651657274947	-40.992	-29.28	1005.768	0.28	-0.21	-0.63	-39	1.5	-793.5	0	0	0	0	0	0	0	0	0	0	0	0	0	0	0	0	0	0	156608	243113	0
1651657274957	-40.504	-22.448	1001.376	0.35	-0.14	-0.63	-39	1.5	-796.5	0	0	0	0	0	0	0	0	0	0	0	0	0	0	0	0	0	0	156614	243116	0
1651657274967	-36.112	-20.496	1010.648	0.35	-0.21	-0.56	-43.5	3	-801	0	0	0	0	0	0	0	0	0	0	0	0	0	0	0	0	0	0	156615	243139	0
1651657274977	-13.664	-9.272	1024.312	0.28	-0.14	-0.56	-42	0	-796.5	0	0	0	0	0	0	0	0	0	0	0	0	0	0	0	0	0	0	156615	243140	0
1651657274987	367.952	205.448	1035.536	0.84	0	-21.84	-42	-4.5	-790.5	0	0	0	0	0	0	0	0	0	0	0	0	0	0	0	0	0	0	156615	243157	0
1651657274997	-25.864	146.4	928.664	3.15	1.26	-81.06	-42	1.5	-789	0	0	0	0	0	0	0	0	0	0	0	0	0	0	0	0	0	0	156631	243173	0
1651657275007	-63.928	47.824	1017.48	1.75	-0.49	-52.01	-45	1.5	-795	0	0	0	0	0	0	0	0	0	0	0	0	0	0	0	0	0	0	156637	243178	0
1651657275017	-22.936	1.952	1001.864	0.35	-0.35	-19.11	-49.5	1.5	-795	0	0	0	0	0	0	0	0	0	0	0	0	0	0	0	0	0	0	156632	243194	0
1651657275027	26.352	8.784	954.04	0.35	0.07	-23.1	-45	4.5	-796.5	0	0	0	0	0	0	0	0	0	0	0	0	0	0	0	0	0	0	156633	243195	0
1651657275037	22.936	50.264	1003.328	2.17	-0.42	-44.87	-45	7.5	-798	0	0	0	0	0	0	0	0	0	0	0	0	0	0	0	0	0	0	156638	243209	0
1651657275047	-67.344	-13.176	1035.536	1.68	-0.28	-55.16	-48	13.5	-798	0	0	0	0	0	0	0	0	0	0	0	0	0	0	0	0	0	0	156634	243214	0
1651657275057	-24.4	-12.688	1024.8	2.1	0.42	-54.88	-45	16.5	-799.5	0	0	0	0	0	0	0	0	0	0	0	0	0	0	0	0	0	0	156605	243216	0
1651657275067	-47.336	-69.296	1228.296	0.63	-2.24	-49.49	-45	22.5	-799.5	0	0	0	0	0	0	0	0	0	0	0	0	0	0	0	0	0	0	156603	243203	0
1651657275077	5.368	20.984	1269.288	0.98	0.14	-47.74	-49.5	24	-801	0	0	0	0	0	0	0	0	0	0	0	0	0	0	0	0	0	0	156580	243205	0
1651657275087	24.4	18.544	1091.168	0	-1.89	-53.97	-49.5	24	-802.5	0	0	0	0	0	0	0	0	0	0	0	0	0	0	0	0	0	0	156570	243199	0
1651657275097	-29.768	56.608	1021.384	2.31	-1.12	-59.22	-51	28.5	-801	0	0	0	0	0	0	0	0	0	0	0	0	0	0	0	0	0	0	156560	243174	0
1651657275107	-34.648	-80.032	1094.096	0	-2.94	-57.47	-54	30	-802.5	0	0	0	0	0	0	0	0	0	0	0	0	0	0	0	0	0	0	156554	243145	0
1651657275117	-55.144	-7.808	1036.024	1.82	-1.4	-52.01	-58.5	30	-808.5	0	0	0	0	0	0	0	0	0	0	0	0	0	0	0	0	0	0	156563	243130	0
1651657275127	-32.208	-67.832	872.544	1.54	2.8	-47.67	-66	27	-813	0	0	0	0	0	0	0	0	0	0	0	0	0	0	0	0	0	0	156552	243131	0
1651657275137	-14.64	73.688	1049.688	0.98	-0.35	-47.46	-64.5	31.5	-822	0	0	0	0	0	0	0	0	0	0	0	0	0	0	0	0	0	0	156544	243128	0
1651657275147	-63.928	-14.152	1081.896	0.84	-0.84	-47.88	-63	40.5	-823.5	0	0	0	0	0	0	0	0	0	0	0	0	0	0	0	0	0	0	156549	243127	0
1651657275157	-61.976	-10.248	958.432	1.89	2.1	-46.2	-67.5	43.5	-822	0	0	0	0	0	0	0	0	0	0	0	0	0	0	0	0	0	0	156554	243121	0
1651657275167	-34.648	-61.488	884.744	1.26	1.33	-45.43	-72	46.5	-817.5	0	0	0	0	0	0	0	0	0	0	0	0	0	0	0	0	0	0	156547	243130	0
1651657275177	-45.384	-131.76	960.872	1.12	-3.15	-46.69	-66	46.5	-819	0	0	0	0	0	0	0	0	0	0	0	0	0	0	0	0	0	0	156553	243119	0
1651657275187	-69.784	-59.048	1005.28	1.47	-0.77	-45.5	-64.5	42	-828	0	0	0	0	0	0	0	0	0	0	0	0	0	0	0	0	0	0	156533	243127	0
1651657275197	-65.88	-115.656	1027.728	1.4	0.07	-42.7	-70.5	42	-829.5	0	0	0	0	0	0	0	0	0	0	0	0	0	0	0	0	0	0	156526	243123	0
1651657275207	-26.352	-13.176	891.576	1.47	2.17	-39.62	-75	48	-825	0	0	0	0	0	0	0	0	0	0	0	0	0	0	0	0	0	0	156531	243080	0
1651657275217	-50.264	0.976	705.16	2.59	2.45	-36.4	-75	49.5	-831	0	0	0	0	0	0	0	0	0	0	0	0	0	0	0	0	0	0	156534	243109	0
1651657275227	-13.664	-79.056	966.728	2.17	-0.28	-29.96	-70.5	46.5	-834	0	0	0	0	0	0	0	0	0	0	0	0	0	0	0	0	0	0	156535	243088	0
1651657275237	-71.248	-111.264	979.416	0.98	0.49	-25.2	-72	49.5	-832.5	0	0	0	0	0	0	0	0	0	0	0	0	0	0	0	0	0	0	156509	243024	0
1651657275247	-38.064	-51.24	1012.6	0.56	-0.63	-19.25	-75	51	-838.5	0	0	0	0	0	0	0	0	0	0	0	0	0	0	0	0	0	0	156499	242984	0
1651657275257	-59.536	-76.616	1030.168	0.7	0.42	-15.4	-75	52.5	-835.5	0	0	0	0	0	0	0	0	0	0	0	0	0	0	0	0	0	0	156492	242935	0
1651657275267	-34.648	-30.256	974.048	1.12	1.05	-13.16	-76.5	58.5	-832.5	0	0	0	0	0	0	0	0	0	0	0	0	0	0	0	0	0	0	156494	242881	0
1651657275277	-58.072	-86.864	982.832	0.98	0.35	-11.83	-78	52.5	-838.5	0	0	0	0	0	0	0	0	0	0	0	0	0	0	0	0	0	0	156484	242864	0
1651657275287	-48.8	-79.544	1013.088	0.42	-0.42	-4.83	-81	49.5	-838.5	0	0	0	0	0	0	0	0	0	0	0	0	0	0	0	0	0	0	156476	242824	0
1651657275297	-37.576	-20.984	1000.888	0.28	-0.35	-0.77	-81	49.5	-837	0	0	0	0	0	0	0	0	0	0	0	0	0	0	0	0	0	0	156491	242826	0
1651657275307	-83.936	-17.568	1023.824	0.42	-0.21	-0.49	-81	48	-835.5	0	0	0	0	0	0	0	0	0	0	0	0	0	0	0	0	0	0	156508	242817	0
1651657275317	-80.032	-10.248	1011.624	0.28	-0.07	-0.56	-79.5	52.5	-834	0	0	0	0	0	0	0	0	0	0	0	0	0	0	0	0	0	0	156533	242816	0
1651657275327	-88.328	-40.992	1011.624	0.14	0.21	-0.56	-78	51	-832.5	0	0	0	0	0	0	0	0	0	0	0	0	0	0	0	0	0	0	156521	242823	0
1651657275337	-50.264	-29.768	1001.864	0.21	-0.28	-0.49	-76.5	52.5	-835.5	0	0	0	0	0	0	0	0	0	0	0	0	0	0	0	0	0	0	156529	242838	0
1651657275347	-52.216	-34.16	1011.624	0.21	-0.21	-0.49	-73.5	54	-835.5	0	0	0	0	0	0	0	0	0	0	0	0	0	0	0	0	0	0	156551	242853	0
1651657275357	-54.168	-36.112	995.032	0.35	-0.14	-0.63	-73.5	54	-834	0	0	0	0	0	0	0	0	0	0	0	0	0	0	0	0	0	0	156545	242876	0
1651657275367	60.512	-68.32	975.512	0.35	-0.63	-0.7	-70.5	58.5	-834	0	0	0	0	0	0	0	0	0	0	0	0	0	0	0	0	0	0	156566	242904	0
1651657275377	-27.816	-41.48	1027.728	0.35	-0.56	-0.77	-70.5	54	-834	0	0	0	0	0	0	0	0	0	0	0	0	0	0	0	0	0	0	156571	242935	0
1651657275387	-69.296	-18.056	986.248	0.35	-0.21	-0.49	-73.5	51	-834	0	0	0	0	0	0	0	0	0	0	0	0	0	0	0	0	0	0	156596	242945	0
1651657275397	-37.576	-18.544	1013.088	0.42	-0.07	-0.49	-70.5	54	-834	0	0	0	0	0	0	0	0	0	0	0	0	0	0	0	0	0	0	156582	242951	0
1651657275407	-23.912	-31.232	1034.072	0.42	-0.49	-0.49	-73.5	58.5	-832.5	0	0	0	0	0	0	0	0	0	0	0	0	0	0	0	0	0	0	156595	242944	0
1651657275417	-29.28	-35.624	1020.408	0.49	-0.35	-0.56	-78	51	-832.5	0	0	0	0	0	0	0	0	0	0	0	0	0	0	0	0	0	0	156591	242974	0
1651657275427	-24.4	-21.472	1023.336	0.49	-0.28	-0.49	-72	49.5	-835.5	0	0	0	0	0	0	0	0	0	0	0	0	0	0	0	0	0	0	156581	242968	0
1651657275437	-36.6	-31.232	1005.768	0.63	-0.35	-0.7	-70.5	58.5	-837	0	0	0	0	0	0	0	0	0	0	0	0	0	0	0	0	0	0	156583	242974	0
1651657275447	-31.72	-37.576	995.52	0.42	-0.21	-0.7	-78	55.5	-829.5	0	0	0	0	0	0	0	0	0	0	0	0	0	0	0	0	0	0	156600	242985	0
1651657275457	40.504	-51.24	1043.832	0.42	-0.35	-0.77	-81	48	-832.5	0	0	0	0	0	0	0	0	0	0	0	0	0	0	0	0	0	0	156584	242986	0
1651657275467	-31.232	32.696	1036.512	0	-0.49	-0.42	-82.5	51	-837	0	0	0	0	0	0	0	0	0	0	0	0	0	0	0	0	0	0	156586	242985	0
1651657275477	-83.448	-9.272	978.928	0.21	-0.42	-0.49	-76.5	55.5	-834	0	0	0	0	0	0	0	0	0	0	0	0	0	0	0	0	0	0	156601	242986	0
1651657275487	-22.936	-66.368	981.856	0.42	-0.07	-0.63	-78	57	-834	0	0	0	0	0	0	0	0	0	0	0	0	0	0	0	0	0	0	156598	242976	0
1651657275497	-43.432	0	1029.192	0.28	-0.28	-0.49	-75	51	-835.5	0	0	0	0	0	0	0	0	0	0	0	0	0	0	0	0	0	0	156601	243003	0
1651657275507	-69.296	-78.568	976.976	0.35	0.14	-0.7	-69	48	-837	0	0	0	0	0	0	0	0	0	0	0	0	0	0	0	0	0	0	156614	243007	0
1651657275517	-48.8	-27.816	971.12	0.49	0.56	-0.63	-72	54	-837	0	0	0	0	0	0	0	0	0	0	0	0	0	0	0	0	0	0	156611	243013	0
1651657275527	-57.584	-30.256	988.2	0.56	0.14	-0.56	-73.5	55.5	-835.5	0	0	0	0	0	0	0	0	0	0	0	0	0	0	0	0	0	0	156619	242997	0
1651657275537	-42.456	-28.792	996.008	0.63	-0.14	-0.56	-70.5	54	-831	0	0	0	0	0	0	0	0	0	0	0	0	0	0	0	0	0	0	156628	243002	0
1651657275547	-25.376	-20.984	1027.24	0.42	-0.56	-0.56	-76.5	51	-832.5	0	0	0	0	0	0	0	0	0	0	0	0	0	0	0	0	0	0	156626	243003	0
1651657275557	-30.256	-37.088	1009.184	0.35	-0.42	-0.77	-79.5	49.5	-834	0	0	0	0	0	0	0	0	0	0	0	0	0	0	0	0	0	0	156621	242974	0
1651657275567	-43.432	-22.936	977.464	0.42	0.14	-0.56	-78	51	-829.5	0	0	0	0	0	0	0	0	0	0	0	0	0	0	0	0	0	0	156639	242985	0
1651657275577	-33.672	-32.208	1004.304	0.42	-0.21	-0.63	-76.5	57	-834	0	0	0	0	0	0	0	0	0	0	0	0	0	0	0	0	0	0	156628	242962	0
1651657275587	-30.744	-6.344	1027.728	0.14	-0.56	-0.49	-75	55.5	-838.5	0	0	0	0	0	0	0	0	0	0	0	0	0	0	0	0	0	0	156622	242960	0
1651657275597	-31.232	-20.008	998.448	0.42	-0.14	-0.63	-73.5	51	-835.5	0	0	0	0	0	0	0	0	0	0	0	0	0	0	0	0	0	0	156611	242954	0
1651657275607	-36.6	-18.544	1009.184	0.35	-0.21	-0.63	-75	51	-837	0	0	0	0	0	0	0	0	0	0	0	0	0	0	0	0	0	0	156596	242924	0
1651657275617	-29.28	-32.208	1011.136	0.35	-0.42	-0.7	-75	52.5	-837	0	0	0	0	0	0	0	0	0	0	0	0	0	0	0	0	0	0	156589	242914	0
1651657275627	-50.264	-36.112	1010.16	0.28	-0.21	-0.7	-76.5	52.5	-837	0	0	0	0	0	0	0	0	0	0	0	0	0	0	0	0	0	0	156585	242904	0
1651657275637	-39.528	-32.208	1002.84	0.21	-0.07	-0.77	-72	51	-834	0	0	0	0	0	0	0	0	0	0	0	0	0	0	0	0	0	0	156567	242869	0
1651657275647	-25.376	-23.912	992.592	0.21	-0.35	-0.56	-70.5	49.5	-834	0	0	0	0	0	0	0	0	0	0	0	0	0	0	0	0	0	0	156554	242865	0
1651657275657	-37.088	-18.544	999.424	0.28	-0.21	-0.7	-81	51	-835.5	0	0	0	0	0	0	0	0	0	0	0	0	0	0	0	0	0	0	156503	242847	0
1651657275668	-40.504	-18.056	1009.184	0.28	-0.28	-0.7	-79.5	52.5	-835.5	0	0	0	0	0	0	0	0	0	0	0	0	0	0	0	0	0	0	156491	242843	0
1651657275678	-22.936	-28.304	1005.768	0.21	-0.28	-0.7	-73.5	54	-831	0	0	0	0	0	0	0	0	0	0	0	0	0	0	0	0	0	0	156446	242814	0
1651657275688	-41.968	-17.08	1015.04	0.28	-0.35	-0.63	-78	52.5	-831	0	0	0	0	0	0	0	0	0	0	0	0	0	0	0	0	0	0	156437	242815	0
1651657275698	-33.672	-24.4	1009.184	0.28	-0.35	-0.49	-78	52.5	-835.5	0	0	0	0	0	0	0	0	0	0	0	0	0	0	0	0	0	0	156396	242792	0
1651657275708	-28.792	-26.84	1006.744	0.21	-0.21	-0.63	-76.5	57	-840	0	0	0	0	0	0	0	0	0	0	0	0	0	0	0	0	0	0	156364	242801	0
1651657275718	-31.232	-23.912	1010.16	0.35	-0.28	-0.63	-78	60	-834	0	0	0	0	0	0	0	0	0	0	0	0	0	0	0	0	0	0	156351	242793	0
1651657275728	-34.16	-21.96	1008.696	0.35	-0.35	-0.63	-78	55.5	-835.5	0	0	0	0	0	0	0	0	0	0	0	0	0	0	0	0	0	0	156346	242788	0
1651657275738	-25.864	-21.472	1000.4	0.42	-0.21	-0.7	-75	51	-835.5	0	0	0	0	0	0	0	0	0	0	0	0	0	0	0	0	0	0	156355	242771	0
1651657275748	-30.256	-22.448	1000.888	0.42	0	-0.7	-79.5	55.5	-832.5	0	0	0	0	0	0	0	0	0	0	0	0	0	0	0	0	0	0	156347	242772	0
1651657275758	-38.064	-18.056	1013.576	0.28	-0.21	-0.7	-81	55.5	-840	0	0	0	0	0	0	0	0	0	0	0	0	0	0	0	0	0	0	156332	242787	0
1651657275768	-30.256	-18.544	1010.16	0.35	-0.35	-0.7	-76.5	54	-838.5	0	0	0	0	0	0	0	0	0	0	0	0	0	0	0	0	0	0	156310	242759	0
1651657275778	-33.672	-23.912	1006.256	0.28	-0.28	-0.7	-73.5	54	-832.5	0	0	0	0	0	0	0	0	0	0	0	0	0	0	0	0	0	0	156283	242769	0
1651657275788	-32.208	-16.592	1008.208	0.28	-0.14	-0.56	-72	52.5	-831	0	0	0	0	0	0	0	0	0	0	0	0	0	0	0	0	0	0	156286	242759	0
1651657275798	-32.696	-26.352	1015.04	0.21	-0.28	-0.7	-73.5	51	-832.5	0	0	0	0	0	0	0	0	0	0	0	0	0	0	0	0	0	0	156300	242756	0
1651657275808	-38.552	-21.472	1005.768	0.35	-0.28	-0.63	-78	45	-837	0	0	0	0	0	0	0	0	0	0	0	0	0	0	0	0	0	0	156305	242768	0
1651657275818	-36.6	-19.52	1004.792	0.35	-0.21	-0.63	-78	45	-837	0	0	0	0	0	0	0	0	0	0	0	0	0	0	0	0	0	0	156325	242759	0
1651657275828	-41.48	-27.328	1006.256	0.21	-0.35	-0.56	-78	54	-835.5	0	0	0	0	0	0	0	0	0	0	0	0	0	0	0	0	0	0	156340	242784	0
1651657275838	-25.376	-24.4	1008.696	0.21	-0.28	-0.56	-78	57	-834	0	0	0	0	0	0	0	0	0	0	0	0	0	0	0	0	0	0	156344	242776	0
1651657275848	-29.28	-27.328	1005.768	0.14	-0.28	-0.63	-73.5	55.5	-834	0	0	0	0	0	0	0	0	0	0	0	0	0	0	0	0	0	0	156350	242776	0
1651657275858	-35.624	-25.376	1006.744	0.07	-0.21	-0.63	-76.5	54	-837	0	0	0	0	0	0	0	0	0	0	0	0	0	0	0	0	0	0	156359	242774	0
1651657275868	-34.16	-28.304	1005.768	0.07	-0.35	-0.63	-81	52.5	-838.5	0	0	0	0	0	0	0	0	0	0	0	0	0	0	0	0	0	0	156385	242779	0
1651657275878	-27.816	-22.448	1008.696	0.14	-0.35	-0.63	-76.5	52.5	-834	0	0	0	0	0	0	0	0	0	0	0	0	0	0	0	0	0	0	156402	242797	0
1651657275888	-34.648	-17.08	1001.864	0.35	-0.21	-0.63	-78	52.5	-831	0	0	0	0	0	0	0	0	0	0	0	0	0	0	0	0	0	0	156419	242802	0
1651657275898	-37.088	-23.912	1008.208	0.35	-0.28	-0.7	-84	55.5	-837	0	0	0	0	0	0	0	0	0	0	0	0	0	0	0	0	0	0	156416	242807	0
1651657275908	-38.064	-26.84	1011.624	0.35	-0.28	-0.63	-81	58.5	-838.5	0	0	0	0	0	0	0	0	0	0	0	0	0	0	0	0	0	0	156421	242811	0
1651657275918	-36.112	-27.328	1010.648	0.28	-0.21	-0.63	-72	54	-835.5	0	0	0	0	0	0	0	0	0	0	0	0	0	0	0	0	0	0	156408	242817	0
1651657275928	-28.304	-22.448	1010.648	0.28	-0.28	-0.77	-69	51	-834	0	0	0	0	0	0	0	0	0	0	0	0	0	0	0	0	0	0	156402	242814	0
1651657275938	-32.208	-22.448	1011.624	0.21	-0.28	-0.7	-72	51	-838.5	0	0	0	0	0	0	0	0	0	0	0	0	0	0	0	0	0	0	156399	242815	0
1651657275948	-25.376	-26.84	1003.328	0.21	-0.42	-0.63	-73.5	49.5	-832.5	0	0	0	0	0	0	0	0	0	0	0	0	0	0	0	0	0	0	156372	242812	0
1651657275958	-36.6	-22.448	1005.28	0.21	-0.21	-0.63	-75	51	-834	0	0	0	0	0	0	0	0	0	0	0	0	0	0	0	0	0	0	156352	242796	0
1651657275968	-38.552	-19.032	1004.792	0.14	-0.28	-0.7	-76.5	52.5	-832.5	0	0	0	0	0	0	0	0	0	0	0	0	0	0	0	0	0	0	156330	242791	0
1651657275978	-33.184	-24.888	1013.088	0.07	-0.28	-0.7	-76.5	49.5	-829.5	0	0	0	0	0	0	0	0	0	0	0	0	0	0	0	0	0	0	156319	242789	0
1651657275988	-29.768	-33.184	1005.768	0.07	-0.28	-0.63	-79.5	52.5	-829.5	0	0	0	0	0	0	0	0	0	0	0	0	0	0	0	0	0	0	156293	242797	0
1651657275998	-29.768	-21.472	1004.304	0.28	-0.28	-0.7	-78	54	-835.5	0	0	0	0	0	0	0	0	0	0	0	0	0	0	0	0	0	0	156279	242785	0
1651657276008	-20.496	13.176	1000.888	0.28	-0.35	-0.7	-76.5	54	-837	0	0	0	0	0	0	0	0	0	0	0	0	0	0	0	0	0	0	156228	242778	0
1651657276018	-56.608	-49.776	1032.12	0.28	-0.56	-0.56	-78	55.5	-838.5	0	0	0	0	0	0	0	0	0	0	0	0	0	0	0	0	0	0	156207	242753	0
1651657276028	-24.888	-11.224	1032.12	0.21	-0.49	-0.49	-82.5	57	-837	0	0	0	0	0	0	0	0	0	0	0	0	0	0	0	0	0	0	156194	242750	0
1651657276038	-14.152	-27.328	1001.376	0.35	-0.21	-0.7	-81	61.5	-829.5	0	0	0	0	0	0	0	0	0	0	0	0	0	0	0	0	0	0	156179	242738	0
1651657276048	-25.864	-32.208	1015.04	0.21	-0.28	-0.7	-81	60	-829.5	0	0	0	0	0	0	0	0	0	0	0	0	0	0	0	0	0	0	156167	242723	0
1651657276058	-33.184	-13.176	1010.648	0.42	-0.07	-0.63	-82.5	55.5	-829.5	0	0	0	0	0	0	0	0	0	0	0	0	0	0	0	0	0	0	156144	242710	0
1651657276068	-40.504	-24.4	1006.744	0.49	-0.07	-0.63	-78	54	-832.5	0	0	0	0	0	0	0	0	0	0	0	0	0	0	0	0	0	0	156132	242697	0
1651657276078	-36.6	-18.056	1012.6	0.56	-0.21	-0.63	-75	55.5	-840	0	0	0	0	0	0	0	0	0	0	0	0	0	0	0	0	0	0	156125	242678	0
1651657276088	-26.84	-31.72	1009.672	0.56	-0.21	-0.7	-76.5	52.5	-838.5	0	0	0	0	0	0	0	0	0	0	0	0	0	0	0	0	0	0	156132	242641	0
1651657276098	-23.912	-24.4	1002.84	0.35	0	-0.56	-78	49.5	-834	0	0	0	0	0	0	0	0	0	0	0	0	0	0	0	0	0	0	156120	242633	0
1651657276108	-32.696	-21.472	1004.304	0.21	-0.21	-0.56	-72	52.5	-835.5	0	0	0	0	0	0	0	0	0	0	0	0	0	0	0	0	0	0	156109	242587	0
1651657276118	-36.112	-20.008	1009.184	0.28	-0.28	-0.63	-72	51	-835.5	0	0	0	0	0	0	0	0	0	0	0	0	0	0	0	0	0	0	156101	242501	0
1651657276128	-35.624	-20.008	1008.696	0.28	-0.21	-0.56	-75	49.5	-835.5	0	0	0	0	0	0	0	0	0	0	0	0	0	0	0	0	0	0	156130	242441	0
1651657276138	-45.384	-29.768	1008.696	0.21	-0.21	-0.63	-79.5	52.5	-834	0	0	0	0	0	0	0	0	0	0	0	0	0	0	0	0	0	0	156108	242341	0
1651657276148	-32.696	-14.64	1013.576	0.21	-0.21	-0.56	-84	55.5	-835.5	0	0	0	0	0	0	0	0	0	0	0	0	0	0	0	0	0	0	156111	242259	0
1651657276158	-33.672	-20.984	1006.256	0.35	-0.28	-0.63	-79.5	57	-840	0	0	0	0	0	0	0	0	0	0	0	0	0	0	0	0	0	0	156096	242158	0
1651657276168	-31.72	-30.744	1001.376	0.14	-0.14	-0.63	-75	54	-838.5	0	0	0	0	0	0	0	0	0	0	0	0	0	0	0	0	0	0	156082	242069	0
1651657276178	-39.04	-24.888	1005.768	0.07	-0.21	-0.63	-76.5	52.5	-837	0	0	0	0	0	0	0	0	0	0	0	0	0	0	0	0	0	0	156062	242028	0
1651657276188	-27.328	-22.936	1011.136	0	-0.28	-0.56	-76.5	51	-834	0	0	0	0	0	0	0	0	0	0	0	0	0	0	0	0	0	0	156051	242009	0
1651657276198	-32.696	-21.96	1007.232	0.14	-0.14	-0.56	-78	48	-834	0	0	0	0	0	0	0	0	0	0	0	0	0	0	0	0	0	0	156034	241976	0
1651657276208	-41.968	-22.936	1005.768	0.21	-0.21	-0.63	-78	49.5	-841.5	0	0	0	0	0	0	0	0	0	0	0	0	0	0	0	0	0	0	156014	241985	0
1651657276218	-34.16	-20.496	1003.328	0.28	-0.28	-0.63	-78	55.5	-837	0	0	0	0	0	0	0	0	0	0	0	0	0	0	0	0	0	0	155990	241972	0
1651657276228	-40.992	-20.496	1010.648	0.28	-0.21	-0.7	-78	55.5	-832.5	0	0	0	0	0	0	0	0	0	0	0	0	0	0	0	0	0	0	155968	241983	0
1651657276238	-33.672	-29.28	1006.744	0.28	-0.21	-0.56	-76.5	52.5	-837	0	0	0	0	0	0	0	0	0	0	0	0	0	0	0	0	0	0	155938	241977	0
1651657276248	-34.16	-25.864	1005.768	0.28	-0.14	-0.77	-73.5	55.5	-835.5	0	0	0	0	0	0	0	0	0	0	0	0	0	0	0	0	0	0	155893	241985	0
1651657276258	-36.112	-20.496	1005.28	0.21	-0.14	-0.63	-76.5	51	-840	0	0	0	0	0	0	0	0	0	0	0	0	0	0	0	0	0	0	155837	241980	0
1651657276268	-35.624	-20.984	1012.6	0.21	-0.21	-0.63	-81	46.5	-840	0	0	0	0	0	0	0	0	0	0	0	0	0	0	0	0	0	0	155781	241967	0
1651657276278	-38.064	-23.424	1006.256	0.35	-0.21	-0.56	-79.5	52.5	-835.5	0	0	0	0	0	0	0	0	0	0	0	0	0	0	0	0	0	0	155727	241948	0
1651657276288	-26.352	-25.864	1010.16	0.28	-0.14	-0.7	-81	55.5	-834	0	0	0	0	0	0	0	0	0	0	0	0	0	0	0	0	0	0	155685	241974	0
1651657276298	-33.672	-24.888	1006.744	0.35	-0.14	-0.56	-79.5	58.5	-837	0	0	0	0	0	0	0	0	0	0	0	0	0	0	0	0	0	0	155661	241951	0
1651657276308	-43.432	-20.496	1004.792	0.42	-0.21	-0.77	-75	60	-840	0	0	0	0	0	0	0	0	0	0	0	0	0	0	0	0	0	0	155632	241965	0
1651657276318	-37.088	-24.888	1003.328	0.35	-0.21	-0.63	-76.5	57	-838.5	0	0	0	0	0	0	0	0	0	0	0	0	0	0	0	0	0	0	155614	241963	0
1651657276328	-43.432	-20.008	1007.232	0.35	-0.21	-0.63	-78	51	-829.5	0	0	0	0	0	0	0	0	0	0	0	0	0	0	0	0	0	0	155588	241962	0
1651657276338	-35.624	-21.96	1011.136	0.28	-0.35	-0.63	-76.5	49.5	-828	0	0	0	0	0	0	0	0	0	0	0	0	0	0	0	0	0	0	155591	241988	0
1651657276348	-40.016	-25.864	1008.208	0.28	-0.35	-0.56	-76.5	52.5	-828	0	0	0	0	0	0	0	0	0	0	0	0	0	0	0	0	0	0	155583	242004	0
1651657276358	-28.792	-25.864	1003.816	0.35	-0.21	-0.56	-73.5	54	-831	0	0	0	0	0	0	0	0	0	0	0	0	0	0	0	0	0	0	155613	242036	0
1651657276368	-34.648	-16.592	1010.16	0.28	-0.35	-0.49	-81	54	-837	0	0	0	0	0	0	0	0	0	0	0	0	0	0	0	0	0	0	155658	242047	0
1651657276378	-36.6	-26.84	1002.84	0.21	-0.21	-0.63	-81	51	-837	0	0	0	0	0	0	0	0	0	0	0	0	0	0	0	0	0	0	155685	242071	0
1651657276388	-34.16	-27.816	1008.208	0.35	-0.21	-0.63	-76.5	54	-828	0	0	0	0	0	0	0	0	0	0	0	0	0	0	0	0	0	0	155731	242096	0
1651657276398	-30.744	-25.864	1014.064	0.42	-0.14	-0.63	-81	57	-826.5	0	0	0	0	0	0	0	0	0	0	0	0	0	0	0	0	0	0	155789	242105	0
1651657276408	-27.816	-16.592	1005.768	0.28	-0.28	-0.56	-79.5	52.5	-831	0	0	0	0	0	0	0	0	0	0	0	0	0	0	0	0	0	0	155816	242120	0
1651657276418	-34.16	-15.616	1003.328	0.28	-0.21	-0.7	-75	49.5	-829.5	0	0	0	0	0	0	0	0	0	0	0	0	0	0	0	0	0	0	155844	242103	0
1651657276428	-30.256	-21.472	1012.112	0.35	-0.42	-0.77	-76.5	52.5	-832.5	0	0	0	0	0	0	0	0	0	0	0	0	0	0	0	0	0	0	155853	242087	0
1651657276438	-33.184	-20.496	1011.624	0.42	-0.35	-0.63	-81	52.5	-831	0	0	0	0	0	0	0	0	0	0	0	0	0	0	0	0	0	0	155864	242059	0
1651657276448	-30.256	-22.448	1009.184	0.35	-0.21	-0.49	-76.5	54	-826.5	0	0	0	0	0	0	0	0	0	0	0	0	0	0	0	0	0	0	155873	242044	0
1651657276458	-36.6	-23.424	1004.792	0.35	-0.21	-0.56	-76.5	55.5	-831	0	0	0	0	0	0	0	0	0	0	0	0	0	0	0	0	0	0	155870	242003	0
1651657276468	-31.232	-21.472	1007.232	0.35	-0.21	-0.63	-78	51	-832.5	0	0	0	0	0	0	0	0	0	0	0	0	0	0	0	0	0	0	155859	241953	0
1651657276478	-32.696	-20.984	1010.648	0.35	-0.28	-0.56	-78	55.5	-834	0	0	0	0	0	0	0	0	0	0	0	0	0	0	0	0	0	0	155865	241913	0
1651657276488	-32.696	-23.424	1007.72	0.28	-0.28	-0.77	-70.5	58.5	-834	0	0	0	0	0	0	0	0	0	0	0	0	0	0	0	0	0	0	155853	241868	0
1651657276498	-35.136	-21.472	1010.16	0.28	-0.35	-0.7	-69	52.5	-831	0	0	0	0	0	0	0	0	0	0	0	0	0	0	0	0	0	0	155835	241807	0
1651657276509	-28.792	-21.96	1005.28	0.21	-0.28	-0.63	-72	46.5	-829.5	0	0	0	0	0	0	0	0	0	0	0	0	0	0	0	0	0	0	155802	241742	0
1651657276519	-39.528	-20.496	1006.744	0.21	-0.28	-0.56	-70.5	49.5	-832.5	0	0	0	0	0	0	0	0	0	0	0	0	0	0	0	0	0	0	155775	241674	0
1651657276529	-36.6	-21.96	1008.208	0.21	-0.14	-0.63	-76.5	55.5	-834	0	0	0	0	0	0	0	0	0	0	0	0	0	0	0	0	0	0	155726	241617	0
1651657276539	-38.064	-19.52	1004.304	0.35	-0.21	-0.63	-75	55.5	-837	0	0	0	0	0	0	0	0	0	0	0	0	0	0	0	0	0	0	155675	241541	0
1651657276549	-41.968	-17.08	1010.16	0.28	-0.21	-0.56	-75	54	-838.5	0	0	0	0	0	0	0	0	0	0	0	0	0	0	0	0	0	0	155625	241468	0
1651657276559	-37.088	-16.104	1008.208	0.28	-0.35	-0.7	-76.5	52.5	-835.5	0	0	0	0	0	0	0	0	0	0	0	0	0	0	0	0	0	0	155555	241406	0
1651657276569	-38.064	-27.328	1001.376	0.28	-0.28	-0.7	-78	49.5	-835.5	0	0	0	0	0	0	0	0	0	0	0	0	0	0	0	0	0	0	155508	241365	0
1651657276579	-33.184	-21.472	1008.696	0.35	-0.28	-0.63	-78	49.5	-838.5	0	0	0	0	0	0	0	0	0	0	0	0	0	0	0	0	0	0	155485	241315	0
1651657276589	-38.552	-22.936	1009.184	0.35	-0.21	-0.63	-73.5	49.5	-834	0	0	0	0	0	0	0	0	0	0	0	0	0	0	0	0	0	0	155479	241304	0
1651657276599	-42.944	-24.4	1005.28	0.42	-0.21	-0.63	-72	49.5	-829.5	0	0	0	0	0	0	0	0	0	0	0	0	0	0	0	0	0	0	155479	241273	0
1651657276609	-32.208	-22.448	1007.232	0.35	-0.28	-0.49	-76.5	48	-834	0	0	0	0	0	0	0	0	0	0	0	0	0	0	0	0	0	0	155479	241259	0
1651657276619	-31.72	-23.912	1004.304	0.42	-0.28	-0.49	-84	49.5	-838.5	0	0	0	0	0	0	0	0	0	0	0	0	0	0	0	0	0	0	155509	241234	0
1651657276629	-29.28	-22.448	1007.232	0.42	-0.35	-0.56	-79.5	55.5	-837	0	0	0	0	0	0	0	0	0	0	0	0	0	0	0	0	0	0	155531	241243	0
1651657276639	-33.184	-25.864	1010.648	0.35	-0.28	-0.7	-75	52.5	-835.5	0	0	0	0	0	0	0	0	0	0	0	0	0	0	0	0	0	0	155549	241273	0
1651657276649	-34.16	-21.472	1010.648	0.28	-0.35	-0.63	-75	49.5	-838.5	0	0	0	0	0	0	0	0	0	0	0	0	0	0	0	0	0	0	155589	241347	0
1651657276659	-43.92	-20.984	1011.624	0.21	-0.28	-0.56	-75	45	-838.5	0	0	0	0	0	0	0	0	0	0	0	0	0	0	0	0	0	0	155641	241411	0
1651657276669	-36.112	-24.888	1005.768	0.35	-0.42	-0.56	-75	46.5	-835.5	0	0	0	0	0	0	0	0	0	0	0	0	0	0	0	0	0	0	155669	241489	0
1651657276679	-40.016	-21.96	1003.328	0.28	-0.28	-0.63	-78	51	-826.5	0	0	0	0	0	0	0	0	0	0	0	0	0	0	0	0	0	0	155716	241571	0
1651657276689	-31.232	-26.352	1009.184	0.35	-0.35	-0.63	-82.5	52.5	-828	0	0	0	0	0	0	0	0	0	0	0	0	0	0	0	0	0	0	155759	241649	0
1651657276699	-32.696	-23.424	1009.184	0.21	-0.35	-0.56	-79.5	52.5	-835.5	0	0	0	0	0	0	0	0	0	0	0	0	0	0	0	0	0	0	155829	241722	0
1651657276709	-20.496	-21.96	1009.184	0.14	-0.28	-0.49	-78	51	-832.5	0	0	0	0	0	0	0	0	0	0	0	0	0	0	0	0	0	0	155871	241788	0
1651657276719	-26.352	-24.4	1003.328	0.21	-0.21	-0.63	-81	51	-834	0	0	0	0	0	0	0	0	0	0	0	0	0	0	0	0	0	0	155915	241863	0
1651657276729	-28.792	-20.984	1012.6	0.21	-0.21	-0.56	-81	54	-840	0	0	0	0	0	0	0	0	0	0	0	0	0	0	0	0	0	0	155984	241916	0
1651657276739	-28.792	-35.136	1008.696	0.28	-0.14	-0.56	-73.5	55.5	-838.5	0	0	0	0	0	0	0	0	0	0	0	0	0	0	0	0	0	0	156013	241989	0
1651657276749	-41.48	-20.008	1007.232	0.35	-0.21	-0.63	-76.5	55.5	-832.5	0	0	0	0	0	0	0	0	0	0	0	0	0	0	0	0	0	0	156048	242037	0
1651657276759	-34.16	-23.424	1009.184	0.35	-0.21	-0.56	-79.5	51	-834	0	0	0	0	0	0	0	0	0	0	0	0	0	0	0	0	0	0	156081	242068	0
1651657276769	-33.672	-26.352	1012.112	0.35	-0.14	-0.56	-82.5	52.5	-837	0	0	0	0	0	0	0	0	0	0	0	0	0	0	0	0	0	0	156091	242114	0
1651657276779	-39.528	-22.936	1002.352	0.35	-0.28	-0.63	-82.5	58.5	-835.5	0	0	0	0	0	0	0	0	0	0	0	0	0	0	0	0	0	0	156111	242173	0
1651657276789	-32.208	-22.936	1005.28	0.35	-0.21	-0.56	-76.5	58.5	-831	0	0	0	0	0	0	0	0	0	0	0	0	0	0	0	0	0	0	156134	242202	0
1651657276799	-38.064	-22.448	1004.792	0.28	-0.21	-0.56	-78	55.5	-835.5	0	0	0	0	0	0	0	0	0	0	0	0	0	0	0	0	0	0	156169	242292	0
1651657276809	-36.6	-22.936	1009.672	0.28	-0.49	-0.63	-82.5	55.5	-838.5	0	0	0	0	0	0	0	0	0	0	0	0	0	0	0	0	0	0	156199	242349	0
1651657276819	-39.528	-28.792	1003.328	0.35	-0.21	-0.7	-81	54	-835.5	0	0	0	0	0	0	0	0	0	0	0	0	0	0	0	0	0	0	156247	242444	0
1651657276829	-34.648	-24.4	1006.744	0.35	-0.35	-0.77	-76.5	52.5	-834	0	0	0	0	0	0	0	0	0	0	0	0	0	0	0	0	0	0	156269	242529	0
1651657276839	-31.72	-24.888	1007.72	0.21	-0.35	-0.7	-75	51	-829.5	0	0	0	0	0	0	0	0	0	0	0	0	0	0	0	0	0	0	156297	242630	0
1651657276849	-34.16	-19.52	1008.696	0.21	-0.28	-0.63	-76.5	51	-835.5	0	0	0	0	0	0	0	0	0	0	0	0	0	0	0	0	0	0	156327	242734	0
1651657276859	-30.744	-23.424	1003.816	0.35	-0.21	-0.7	-78	54	-841.5	0	0	0	0	0	0	0	0	0	0	0	0	0	0	0	0	0	0	156399	242837	0
1651657276869	-37.576	-25.864	1010.16	0.28	-0.28	-0.63	-79.5	52.5	-838.5	0	0	0	0	0	0	0	0	0	0	0	0	0	0	0	0	0	0	156451	242952	0
1651657276879	-22.936	-31.72	1006.256	0.28	-0.21	-0.63	-81	57	-838.5	0	0	0	0	0	0	0	0	0	0	0	0	0	0	0	0	0	0	156539	243077	0
1651657276889	-32.208	-29.28	1008.208	0.28	-0.28	-0.7	-78	61.5	-837	0	0	0	0	0	0	0	0	0	0	0	0	0	0	0	0	0	0	156633	243162	0
1651657276899	-41.968	-22.936	1014.552	0.35	-0.14	-0.84	-76.5	58.5	-831	0	0	0	0	0	0	0	0	0	0	0	0	0	0	0	0	0	0	156744	243255	0
1651657276909	-31.72	-20.496	1008.208	0.42	-0.21	-0.7	-79.5	57	-832.5	0	0	0	0	0	0	0	0	0	0	0	0	0	0	0	0	0	0	156838	243355	0
1651657276919	-39.528	-21.96	1009.184	0.28	-0.21	-0.77	-75	52.5	-834	0	0	0	0	0	0	0	0	0	0	0	0	0	0	0	0	0	0	156943	243433	0
1651657276929	-37.576	-18.544	1008.696	0.35	-0.28	-0.56	-72	54	-831	0	0	0	0	0	0	0	0	0	0	0	0	0	0	0	0	0	0	157007	243495	0
1651657276939	-37.576	-19.52	1007.72	0.28	-0.21	-0.56	-73.5	57	-835.5	0	0	0	0	0	0	0	0	0	0	0	0	0	0	0	0	0	0	157073	243559	0
1651657276949	-37.088	-24.4	1009.672	0.21	-0.28	-0.63	-76.5	57	-834	0	0	0	0	0	0	0	0	0	0	0	0	0	0	0	0	0	0	157123	243589	0
1651657276959	-36.6	-21.472	1007.232	0.35	-0.28	-0.56	-81	58.5	-837	0	0	0	0	0	0	0	0	0	0	0	0	0	0	0	0	0	0	157134	243610	0
1651657276969	-31.72	-20.008	1004.304	0.35	-0.21	-0.7	-79.5	57	-837	0	0	0	0	0	0	0	0	0	0	0	0	0	0	0	0	0	0	157165	243650	0
1651657276979	-37.576	-22.448	1012.6	0.35	-0.28	-0.63	-78	51	-835.5	0	0	0	0	0	0	0	0	0	0	0	0	0	0	0	0	0	0	157194	243668	0
1651657276989	-31.72	-25.376	1005.28	0.35	-0.28	-0.56	-81	51	-841.5	0	0	0	0	0	0	0	0	0	0	0	0	0	0	0	0	0	0	157236	243724	0
1651657276999	-39.528	-26.352	1004.304	0.35	-0.14	-0.42	-82.5	54	-837	0	0	0	0	0	0	0	0	0	0	0	0	0	0	0	0	0	0	157271	243760	0
1651657277009	-40.992	-27.328	1010.648	0.35	-0.21	-0.49	-75	51	-835.5	0	0	0	0	0	0	0	0	0	0	0	0	0	0	0	0	0	0	157301	243826	0
1651657277019	-36.112	-20.496	1004.304	0.35	-0.21	-0.56	-76.5	54	-837	0	0	0	0	0	0	0	0	0	0	0	0	0	0	0	0	0	0	157349	243889	0
1651657277029	-33.672	-24.888	1007.72	0.21	-0.28	-0.7	-78	52.5	-837	0	0	0	0	0	0	0	0	0	0	0	0	0	0	0	0	0	0	157386	243965	0
1651657277039	-32.696	-28.304	1012.6	0.21	-0.35	-0.7	-78	51	-837	0	0	0	0	0	0	0	0	0	0	0	0	0	0	0	0	0	0	157424	243980	0
1651657277049	-34.648	-22.936	1004.792	0.21	-0.35	-0.7	-79.5	52.5	-832.5	0	0	0	0	0	0	0	0	0	0	0	0	0	0	0	0	0	0	157449	243989	0
1651657277059	-33.184	-20.008	1009.184	0.28	-0.21	-0.63	-78	54	-832.5	0	0	0	0	0	0	0	0	0	0	0	0	0	0	0	0	0	0	157467	243964	0
1651657277069	-32.696	-18.544	1004.304	0.35	-0.21	-0.56	-79.5	55.5	-837	0	0	0	0	0	0	0	0	0	0	0	0	0	0	0	0	0	0	157478	243923	0
1651657277079	-32.208	-19.032	1012.112	0.35	-0.35	-0.63	-75	54	-838.5	0	0	0	0	0	0	0	0	0	0	0	0	0	0	0	0	0	0	157494	243853	0
1651657277089	-31.72	-28.792	1008.696	0.28	-0.28	-0.56	-75	55.5	-838.5	0	0	0	0	0	0	0	0	0	0	0	0	0	0	0	0	0	0	157510	243794	0
1651657277099	-37.088	-22.936	1005.768	0.21	-0.35	-0.56	-81	54	-835.5	0	0	0	0	0	0	0	0	0	0	0	0	0	0	0	0	0	0	157508	243685	0
1651657277109	-39.04	-24.888	1008.696	0.35	-0.35	-0.63	-79.5	57	-837	0	0	0	0	0	0	0	0	0	0	0	0	0	0	0	0	0	0	157497	243596	0
1651657277119	-33.184	-22.448	1008.208	0.28	-0.28	-0.7	-73.5	57	-837	0	0	0	0	0	0	0	0	0	0	0	0	0	0	0	0	0	0	157475	243535	0
1651657277129	-31.72	-27.816	1006.744	0.35	-0.28	-0.63	-72	51	-838.5	0	0	0	0	0	0	0	0	0	0	0	0	0	0	0	0	0	0	157463	243437	0
1651657277139	-28.304	-32.696	1009.184	0.21	-0.21	-0.7	-73.5	54	-832.5	0	0	0	0	0	0	0	0	0	0	0	0	0	0	0	0	0	0	157431	243354	0
1651657277149	-38.552	-26.84	1011.624	0.35	-0.28	-0.63	-76.5	54	-835.5	0	0	0	0	0	0	0	0	0	0	0	0	0	0	0	0	0	0	157396	243250	0
1651657277159	-32.208	-18.544	1005.768	0.28	-0.28	-0.56	-73.5	49.5	-840	0	0	0	0	0	0	0	0	0	0	0	0	0	0	0	0	0	0	157337	243149	0
1651657277169	-32.208	-20.496	1008.696	0.28	-0.14	-0.63	-73.5	46.5	-841.5	0	0	0	0	0	0	0	0	0	0	0	0	0	0	0	0	0	0	157251	243057	0
1651657277179	-30.256	-22.936	1009.184	0.28	-0.21	-0.63	-75	51	-837	0	0	0	0	0	0	0	0	0	0	0	0	0	0	0	0	0	0	157183	242949	0
1651657277189	-37.576	-9.272	1008.696	0.21	-0.21	-0.63	-76.5	55.5	-834	0	0	0	0	0	0	0	0	0	0	0	0	0	0	0	0	0	0	157083	242836	0
1651657277199	-40.992	-19.032	1005.768	0.28	-0.21	-0.63	-78	51	-834	0	0	0	0	0	0	0	0	0	0	0	0	0	0	0	0	0	0	156981	242702	0
1651657277209	-33.672	-28.792	1005.768	0.35	-0.21	-0.63	-78	51	-835.5	0	0	0	0	0	0	0	0	0	0	0	0	0	0	0	0	0	0	156895	242591	0
1651657277219	-35.624	-25.864	1013.088	0.28	-0.35	-0.63	-78	58.5	-835.5	0	0	0	0	0	0	0	0	0	0	0	0	0	0	0	0	0	0	156815	242465	0
1651657277229	-37.576	-24.4	1001.864	0.21	-0.21	-0.63	-73.5	57	-831	0	0	0	0	0	0	0	0	0	0	0	0	0	0	0	0	0	0	156775	242408	0
1651657277239	-38.552	-20.496	1011.136	0.35	-0.28	-0.77	-76.5	52.5	-835.5	0	0	0	0	0	0	0	0	0	0	0	0	0	0	0	0	0	0	156710	242337	0
1651657277249	-30.256	-24.888	1007.232	0.35	-0.21	-0.63	-81	52.5	-837	0	0	0	0	0	0	0	0	0	0	0	0	0	0	0	0	0	0	156650	242241	0
1651657277259	-34.16	-20.496	1006.744	0.42	-0.21	-0.63	-79.5	52.5	-835.5	0	0	0	0	0	0	0	0	0	0	0	0	0	0	0	0	0	0	156586	242193	0
1651657277269	-29.28	-14.64	1006.744	0.35	-0.21	-0.63	-81	54	-838.5	0	0	0	0	0	0	0	0	0	0	0	0	0	0	0	0	0	0	156482	242090	0
1651657277279	-33.672	-23.912	1010.648	0.28	-0.21	-0.56	-76.5	52.5	-838.5	0	0	0	0	0	0	0	0	0	0	0	0	0	0	0	0	0	0	156401	242012	0
1651657277289	-32.696	-21.96	1004.792	0.35	-0.28	-0.63	-73.5	49.5	-831	0	0	0	0	0	0	0	0	0	0	0	0	0	0	0	0	0	0	156332	241936	0
1651657277299	-37.088	-16.592	1009.672	0.28	-0.21	-0.56	-72	48	-831	0	0	0	0	0	0	0	0	0	0	0	0	0	0	0	0	0	0	156244	241848	0
1651657277309	-31.72	-23.424	1008.208	0.35	-0.35	-0.63	-72	52.5	-834	0	0	0	0	0	0	0	0	0	0	0	0	0	0	0	0	0	0	156168	241786	0
1651657277319	-40.992	-28.304	1006.744	0.35	-0.14	-0.7	-76.5	54	-835.5	0	0	0	0	0	0	0	0	0	0	0	0	0	0	0	0	0	0	156126	241712	0
1651657277329	-40.016	-24.888	1008.208	0.21	-0.35	-0.63	-73.5	52.5	-834	0	0	0	0	0	0	0	0	0	0	0	0	0	0	0	0	0	0	156083	241663	0
1651657277339	-32.696	-22.448	1011.624	0.28	-0.42	-0.56	-72	55.5	-829.5	0	0	0	0	0	0	0	0	0	0	0	0	0	0	0	0	0	0	156040	241620	0
1651657277350	-35.624	-21.472	1007.232	0.21	-0.28	-0.7	-76.5	55.5	-832.5	0	0	0	0	0	0	0	0	0	0	0	0	0	0	0	0	0	0	156025	241570	0
1651657277360	-34.16	-24.888	1015.528	0.14	-0.35	-0.63	-78	57	-834	0	0	0	0	0	0	0	0	0	0	0	0	0	0	0	0	0	0	156004	241532	0
1651657277370	-38.552	-25.376	1005.28	0.14	-0.42	-0.7	-73.5	54	-829.5	0	0	0	0	0	0	0	0	0	0	0	0	0	0	0	0	0	0	156014	241496	0
1651657277380	-23.912	-29.768	1007.232	0.28	-0.35	-0.84	-75	57	-826.5	0	0	0	0	0	0	0	0	0	0	0	0	0	0	0	0	0	0	155998	241470	0
1651657277390	-35.624	-30.256	1005.28	0.28	-0.21	-0.7	-81	55.5	-831	0	0	0	0	0	0	0	0	0	0	0	0	0	0	0	0	0	0	155995	241450	0
1651657277400	-27.816	-19.032	1010.648	0.28	-0.28	-0.77	-84	52.5	-831	0	0	0	0	0	0	0	0	0	0	0	0	0	0	0	0	0	0	155997	241431	0
1651657277410	-32.208	-31.232	1005.768	0.35	-0.28	-0.7	-81	55.5	-829.5	0	0	0	0	0	0	0	0	0	0	0	0	0	0	0	0	0	0	155978	241398	0
1651657277420	-26.84	-19.52	1013.576	0.28	-0.28	-0.7	-84	55.5	-832.5	0	0	0	0	0	0	0	0	0	0	0	0	0	0	0	0	0	0	155967	241377	0
1651657277430	-41.48	-21.472	1008.208	0.35	-0.21	-0.7	-79.5	55.5	-835.5	0	0	0	0	0	0	0	0	0	0	0	0	0	0	0	0	0	0	155980	241377	0
1651657277440	-33.672	-24.888	1009.184	0.42	-0.21	-0.77	-73.5	57	-837	0	0	0	0	0	0	0	0	0	0	0	0	0	0	0	0	0	0	155998	241370	0
1651657277450	-33.672	-18.544	1007.232	0.28	-0.28	-0.63	-78	55.5	-832.5	0	0	0	0	0	0	0	0	0	0	0	0	0	0	0	0	0	0	156014	241408	0
1651657277460	-40.504	-28.792	1008.208	0.21	-0.21	-0.63	-76.5	51	-835.5	0	0	0	0	0	0	0	0	0	0	0	0	0	0	0	0	0	0	156054	241443	0
1651657277470	-39.04	-20.984	1007.72	0.21	-0.14	-0.77	-79.5	48	-843	0	0	0	0	0	0	0	0	0	0	0	0	0	0	0	0	0	0	156081	241485	0
1651657277480	-33.184	-22.936	1004.304	0.28	-0.35	-0.7	-78	48	-840	0	0	0	0	0	0	0	0	0	0	0	0	0	0	0	0	0	0	156114	241576	0
1651657277490	-32.208	-19.032	1010.16	0.35	-0.14	-0.63	-75	52.5	-832.5	0	0	0	0	0	0	0	0	0	0	0	0	0	0	0	0	0	0	156154	241642	0
1651657277500	-31.72	-27.816	1007.232	0.28	-0.21	-0.56	-76.5	52.5	-835.5	0	0	0	0	0	0	0	0	0	0	0	0	0	0	0	0	0	0	156189	241731	0
1651657277510	-35.136	-23.912	1012.112	0.28	-0.28	-0.56	-75	57	-835.5	0	0	0	0	0	0	0	0	0	0	0	0	0	0	0	0	0	0	156222	241822	0
1651657277520	-37.576	-22.936	1010.648	0.35	-0.21	-0.63	-76.5	57	-835.5	0	0	0	0	0	0	0	0	0	0	0	0	0	0	0	0	0	0	156254	241896	0
1651657277530	-38.064	-23.424	1009.184	0.35	-0.28	-0.56	-82.5	49.5	-837	0	0	0	0	0	0	0	0	0	0	0	0	0	0	0	0	0	0	156314	241980	0
1651657277540	-37.576	-18.056	1010.16	0.28	-0.28	-0.56	-79.5	51	-829.5	0	0	0	0	0	0	0	0	0	0	0	0	0	0	0	0	0	0	156338	242054	0
1651657277550	-32.696	-29.28	1005.768	0.35	-0.42	-0.7	-75	57	-831	0	0	0	0	0	0	0	0	0	0	0	0	0	0	0	0	0	0	156388	242147	0
1651657277560	-35.624	-20.496	1008.696	0.28	-0.14	-0.56	-76.5	54	-837	0	0	0	0	0	0	0	0	0	0	0	0	0	0	0	0	0	0	156421	242221	0
1651657277570	-27.328	-23.424	1007.72	0.28	-0.21	-0.56	-75	51	-835.5	0	0	0	0	0	0	0	0	0	0	0	0	0	0	0	0	0	0	156438	242297	0
1651657277580	-31.72	-21.472	1009.672	0.35	-0.21	-0.56	-76.5	54	-837	0	0	0	0	0	0	0	0	0	0	0	0	0	0	0	0	0	0	156448	242349	0
1651657277590	-26.84	-21.472	1012.112	0.35	-0.28	-0.63	-76.5	51	-835.5	0	0	0	0	0	0	0	0	0	0	0	0	0	0	0	0	0	0	156463	242421	0
1651657277600	-33.672	-24.4	1005.28	0.35	-0.35	-0.63	-75	48	-832.5	0	0	0	0	0	0	0	0	0	0	0	0	0	0	0	0	0	0	156476	242474	0
1651657277610	-35.624	-20.984	1011.624	0.42	-0.28	-0.7	-76.5	55.5	-831	0	0	0	0	0	0	0	0	0	0	0	0	0	0	0	0	0	0	156503	242526	0
1651657277620	-35.136	-28.304	1007.232	0.35	-0.35	-0.63	-76.5	58.5	-837	0	0	0	0	0	0	0	0	0	0	0	0	0	0	0	0	0	0	156513	242573	0
1651657277630	-37.576	-23.424	1011.624	0.35	-0.28	-0.7	-79.5	52.5	-838.5	0	0	0	0	0	0	0	0	0	0	0	0	0	0	0	0	0	0	156524	242584	0
1651657277640	-40.504	-27.328	1009.672	0.35	-0.28	-0.56	-76.5	52.5	-837	0	0	0	0	0	0	0	0	0	0	0	0	0	0	0	0	0	0	156546	242580	0
1651657277650	-31.72	-21.472	1007.72	0.35	-0.21	-0.63	-75	54	-838.5	0	0	0	0	0	0	0	0	0	0	0	0	0	0	0	0	0	0	156575	242616	0
1651657277660	-36.112	-26.352	1006.256	0.35	-0.21	-0.56	-81	57	-840	0	0	0	0	0	0	0	0	0	0	0	0	0	0	0	0	0	0	156586	242623	0
1651657277670	-36.6	-23.912	1010.16	0.35	-0.28	-0.63	-81	51	-835.5	0	0	0	0	0	0	0	0	0	0	0	0	0	0	0	0	0	0	156587	242626	0
1651657277680	-31.232	-19.52	1006.256	0.35	-0.28	-0.63	-81	51	-834	0	0	0	0	0	0	0	0	0	0	0	0	0	0	0	0	0	0	156588	242634	0
1651657277690	-33.184	-32.696	1003.328	0.35	-0.21	-0.7	-81	57	-835.5	0	0	0	0	0	0	0	0	0	0	0	0	0	0	0	0	0	0	156611	242662	0
1651657277700	-31.72	-33.184	1015.04	0.35	-0.28	-0.63	-79.5	48	-841.5	0	0	0	0	0	0	0	0	0	0	0	0	0	0	0	0	0	0	156616	242659	0
1651657277710	-34.16	-26.84	1006.744	0.35	-0.21	-0.63	-75	43.5	-838.5	0	0	0	0	0	0	0	0	0	0	0	0	0	0	0	0	0	0	156621	242638	0
1651657277720	-31.72	-21.96	1008.696	0.28	-0.21	-0.63	-73.5	49.5	-832.5	0	0	0	0	0	0	0	0	0	0	0	0	0	0	0	0	0	0	156626	242658	0
1651657277730	-40.504	-24.888	1006.256	0.28	-0.28	-0.56	-73.5	51	-831	0	0	0	0	0	0	0	0	0	0	0	0	0	0	0	0	0	0	156634	242652	0
1651657277740	-32.208	-25.376	1008.208	0.35	-0.21	-0.63	-79.5	51	-838.5	0	0	0	0	0	0	0	0	0	0	0	0	0	0	0	0	0	0	156650	242663	0
1651657277750	-30.256	-21.96	1004.304	0.28	-0.28	-0.7	-79.5	51	-840	0	0	0	0	0	0	0	0	0	0	0	0	0	0	0	0	0	0	156650	242656	0
1651657277760	-30.744	-19.032	1002.84	0.28	-0.21	-0.56	-78	52.5	-835.5	0	0	0	0	0	0	0	0	0	0	0	0	0	0	0	0	0	0	156670	242659	0
1651657277770	-38.064	-23.424	1011.136	0.21	-0.28	-0.56	-75	55.5	-832.5	0	0	0	0	0	0	0	0	0	0	0	0	0	0	0	0	0	0	156670	242652	0
1651657277780	-35.624	-23.912	1012.112	0.21	-0.28	-0.63	-76.5	54	-837	0	0	0	0	0	0	0	0	0	0	0	0	0	0	0	0	0	0	156678	242668	0
1651657277790	-37.576	-25.864	1008.696	0.21	-0.28	-0.63	-79.5	51	-835.5	0	0	0	0	0	0	0	0	0	0	0	0	0	0	0	0	0	0	156684	242668	0
1651657277800	-33.672	-23.424	1006.256	0.21	-0.35	-0.56	-70.5	51	-838.5	0	0	0	0	0	0	0	0	0	0	0	0	0	0	0	0	0	0	156698	242688	0
1651657277810	-39.528	-23.912	1010.16	0.21	-0.35	-0.63	-69	51	-837	0	0	0	0	0	0	0	0	0	0	0	0	0	0	0	0	0	0	156696	242678	0
1651657277820	-31.232	-23.424	1003.816	0.35	-0.21	-0.63	-78	54	-837	0	0	0	0	0	0	0	0	0	0	0	0	0	0	0	0	0	0	156707	242679	0
1651657277830	-30.744	-21.472	1011.136	0.35	-0.35	-0.63	-81	54	-838.5	0	0	0	0	0	0	0	0	0	0	0	0	0	0	0	0	0	0	156710	242697	0
1651657277840	-29.28	-21.472	1011.136	0.28	-0.28	-0.77	-78	51	-837	0	0	0	0	0	0	0	0	0	0	0	0	0	0	0	0	0	0	156702	242686	0
1651657277850	-36.6	-24.888	1007.72	0.35	-0.21	-0.63	-75	51	-838.5	0	0	0	0	0	0	0	0	0	0	0	0	0	0	0	0	0	0	156713	242652	0
1651657277860	-38.552	-22.448	1007.232	0.35	-0.28	-0.63	-75	48	-832.5	0	0	0	0	0	0	0	0	0	0	0	0	0	0	0	0	0	0	156717	242607	0
1651657277870	-33.672	-20.496	1005.768	0.35	-0.28	-0.7	-78	49.5	-832.5	0	0	0	0	0	0	0	0	0	0	0	0	0	0	0	0	0	0	156700	242482	0
1651657277880	-43.432	-22.448	1007.232	0.42	-0.28	-0.63	-76.5	46.5	-831	0	0	0	0	0	0	0	0	0	0	0	0	0	0	0	0	0	0	156675	242350	0
1651657277890	-33.184	-24.888	1001.376	0.42	-0.21	-0.63	-75	43.5	-831	0	0	0	0	0	0	0	0	0	0	0	0	0	0	0	0	0	0	156631	242176	0
1651657277900	-35.624	-14.152	1014.064	0.35	-0.21	-0.63	-78	43.5	-835.5	0	0	0	0	0	0	0	0	0	0	0	0	0	0	0	0	0	0	156578	241998	0
1651657277910	-40.016	-24.4	1006.744	0.28	-0.28	-0.56	-79.5	48	-840	0	0	0	0	0	0	0	0	0	0	0	0	0	0	0	0	0	0	156555	241832	0
1651657277920	-35.624	-17.568	1004.792	0.35	-0.28	-0.7	-76.5	51	-837	0	0	0	0	0	0	0	0	0	0	0	0	0	0	0	0	0	0	156531	241713	0
1651657277930	-36.6	-23.912	1004.792	0.35	-0.28	-0.63	-73.5	55.5	-834	0	0	0	0	0	0	0	0	0	0	0	0	0	0	0	0	0	0	156498	241620	0
1651657277940	-33.184	-28.792	1010.16	0.21	-0.28	-0.63	-76.5	58.5	-834	0	0	0	0	0	0	0	0	0	0	0	0	0	0	0	0	0	0	156506	241575	0
1651657277950	-32.208	-22.448	1011.624	0.35	-0.28	-0.63	-75	46.5	-831	0	0	0	0	0	0	0	0	0	0	0	0	0	0	0	0	0	0	156478	241545	0
1651657277960	-35.136	-21.472	1006.744	0.28	-0.42	-0.63	-75	48	-832.5	0	0	0	0	0	0	0	0	0	0	0	0	0	0	0	0	0	0	156486	241533	0
1651657277970	-38.552	-21.96	1011.136	0.21	-0.42	-0.56	-76.5	61.5	-835.5	0	0	0	0	0	0	0	0	0	0	0	0	0	0	0	0	0	0	156490	241546	0
1651657277980	-38.064	-24.888	1006.256	0.21	-0.28	-0.63	-75	57	-834	0	0	0	0	0	0	0	0	0	0	0	0	0	0	0	0	0	0	156502	241573	0
1651657277990	-31.232	-20.984	1004.792	0.28	-0.21	-0.63	-76.5	55.5	-834	0	0	0	0	0	0	0	0	0	0	0	0	0	0	0	0	0	0	156513	241602	0
1651657278000	-54.168	-35.136	1002.84	0.35	-0.14	-0.63	-75	57	-831	0	0	0	0	0	0	0	0	0	0	0	0	0	0	0	0	0	0	156533	241660	0
1651657278010	-7.32	2.44	1030.168	-0.21	-1.26	-0.49	-75	51	-826.5	0	0	0	0	0	0	0	0	0	0	0	0	0	0	0	0	0	0	156550	241710	0
1651657278020	-52.216	-46.848	1019.92	0.35	-0.14	-0.63	-75	49.5	-829.5	0	0	0	0	0	0	0	0	0	0	0	0	0	0	0	0	0	0	156569	241756	0
1651657278030	-42.456	-9.272	1013.576	0.28	-0.35	-0.63	-73.5	51	-832.5	0	0	0	0	0	0	0	0	0	0	0	0	0	0	0	0	0	0	156564	241807	0
1651657278040	-37.088	-22.448	1014.552	0.21	-0.7	-0.63	-81	51	-832.5	0	0	0	0	0	0	0	0	0	0	0	0	0	0	0	0	0	0	156574	241849	0
1651657278050	-28.304	-20.984	1005.28	0.28	-0.14	-0.49	-82.5	51	-828	0	0	0	0	0	0	0	0	0	0	0	0	0	0	0	0	0	0	156576	241868	0
1651657278060	-40.016	-27.328	1004.792	0.35	-0.14	-0.56	-78	49.5	-828	0	0	0	0	0	0	0	0	0	0	0	0	0	0	0	0	0	0	156596	241922	0
1651657278070	-25.864	-22.448	1016.992	0.28	-0.63	-0.63	-78	49.5	-831	0	0	0	0	0	0	0	0	0	0	0	0	0	0	0	0	0	0	156599	241935	0
1651657278080	-37.576	-16.592	1010.16	0.35	-0.28	-0.63	-79.5	51	-832.5	0	0	0	0	0	0	0	0	0	0	0	0	0	0	0	0	0	0	156607	241974	0
1651657278090	-23.912	-29.768	1002.352	0.42	-0.28	-0.63	-79.5	51	-835.5	0	0	0	0	0	0	0	0	0	0	0	0	0	0	0	0	0	0	156608	241995	0
1651657278100	-27.816	-30.256	1010.648	0.35	-0.42	-0.63	-78	51	-837	0	0	0	0	0	0	0	0	0	0	0	0	0	0	0	0	0	0	156622	242036	0
1651657278110	-38.064	-18.544	1005.28	0.42	-0.14	-0.7	-76.5	51	-835.5	0	0	0	0	0	0	0	0	0	0	0	0	0	0	0	0	0	0	156636	242040	0
1651657278120	-35.136	-34.16	1010.16	0.42	-0.21	-0.63	-76.5	55.5	-832.5	0	0	0	0	0	0	0	0	0	0	0	0	0	0	0	0	0	0	156643	242096	0
1651657278130	-35.624	-22.448	1006.744	0.35	-0.14	-0.63	-78	52.5	-834	0	0	0	0	0	0	0	0	0	0	0	0	0	0	0	0	0	0	156663	242118	0
1651657278140	-36.6	-23.424	1017.48	0.35	-0.35	-0.63	-82.5	48	-837	0	0	0	0	0	0	0	0	0	0	0	0	0	0	0	0	0	0	156660	242159	0
1651657278150	-37.576	-26.84	1005.28	0.35	-0.07	-0.7	-79.5	46.5	-840	0	0	0	0	0	0	0	0	0	0	0	0	0	0	0	0	0	0	156682	242166	0
1651657278160	-33.184	-19.032	1009.672	0.21	-0.21	-0.63	-78	51	-832.5	0	0	0	0	0	0	0	0	0	0	0	0	0	0	0	0	0	0	156686	242175	0
1651657278170	-34.16	-14.152	1011.136	0.28	-0.21	-0.56	-79.5	55.5	-828	0	0	0	0	0	0	0	0	0	0	0	0	0	0	0	0	0	0	156696	242188	0
1651657278180	-38.552	-21.472	1010.648	0.35	-0.21	-0.56	-78	54	-832.5	0	0	0	0	0	0	0	0	0	0	0	0	0	0	0	0	0	0	156684	242167	0
1651657278191	-34.16	-17.568	1007.232	0.28	-0.28	-0.63	-78	51	-837	0	0	0	0	0	0	0	0	0	0	0	0	0	0	0	0	0	0	156695	242185	0
1651657278201	-30.744	-26.84	1011.624	0.28	-0.28	-0.56	-75	54	-838.5	0	0	0	0	0	0	0	0	0	0	0	0	0	0	0	0	0	0	156677	242171	0
1651657278211	-36.6	-23.912	1005.28	0.21	-0.21	-0.56	-75	57	-835.5	0	0	0	0	0	0	0	0	0	0	0	0	0	0	0	0	0	0	156685	242158	0
1651657278221	-31.72	-15.128	1007.72	0.14	-0.21	-0.56	-78	51	-832.5	0	0	0	0	0	0	0	0	0	0	0	0	0	0	0	0	0	0	156673	242112	0
1651657278231	-38.064	-32.208	1004.792	0.28	-0.14	-0.63	-78	51	-831	0	0	0	0	0	0	0	0	0	0	0	0	0	0	0	0	0	0	156664	242088	0
1651657278241	-37.088	-20.496	1007.72	0.35	-0.28	-0.7	-76.5	52.5	-831	0	0	0	0	0	0	0	0	0	0	0	0	0	0	0	0	0	0	156672	242068	0
1651657278251	-40.992	-31.72	1001.864	0.28	-0.14	-0.7	-75	54	-831	0	0	0	0	0	0	0	0	0	0	0	0	0	0	0	0	0	0	156675	242079	0
1651657278261	-26.352	-26.84	1005.768	0.28	-0.21	-0.7	-76.5	52.5	-835.5	0	0	0	0	0	0	0	0	0	0	0	0	0	0	0	0	0	0	156667	242067	0
1651657278271	-36.6	-21.96	1010.648	0.35	-0.21	-0.7	-78	52.5	-838.5	0	0	0	0	0	0	0	0	0	0	0	0	0	0	0	0	0	0	156675	242066	0
1651657278281	-39.04	-16.592	1005.768	0.42	-0.14	-0.56	-79.5	55.5	-831	0	0	0	0	0	0	0	0	0	0	0	0	0	0	0	0	0	0	156676	242091	0
1651657278291	-32.696	-15.128	1013.088	0.35	-0.14	-0.56	-79.5	55.5	-825	0	0	0	0	0	0	0	0	0	0	0	0	0	0	0	0	0	0	156671	242095	0
1651657278301	70.272	-103.456	203.984	2.03	2.17	-7	-79.5	54	-832.5	0	0	0	0	0	0	0	0	0	0	0	0	0	0	0	0	0	0	156689	242109	0
1651657278311	82.96	21.472	341.112	2.94	5.67	-23.38	-75	52.5	-838.5	0	0	0	0	0	0	0	0	0	0	0	0	0	0	0	0	0	0	156677	242139	0
1651657278321	-80.52	60.512	1312.72	-0.21	-2.24	-23.59	-70.5	52.5	-841.5	0	0	0	0	0	0	0	0	0	0	0	0	0	0	0	0	0	0	156686	242153	0
1651657278331	-87.84	113.704	678.808	0.77	4.27	-5.18	-78	51	-837	0	0	0	0	0	0	0	0	0	0	0	0	0	0	0	0	0	0	156689	242191	0
1651657278341	-40.992	15.616	564.128	2.59	7.63	-1.47	-81	46.5	-835.5	0	0	0	0	0	0	0	0	0	0	0	0	0	0	0	0	0	0	156694	242194	0
1651657278351	-16.592	21.96	1046.272	0.21	-1.4	-1.26	-81	49.5	-838.5	0	0	0	0	0	0	0	0	0	0	0	0	0	0	0	0	0	0	156704	242241	0
1651657278361	-73.2	-46.848	860.832	0.98	1.96	-0.84	-84	52.5	-838.5	0	0	0	0	0	0	0	0	0	0	0	0	0	0	0	0	0	0	156704	242248	0
1651657278371	-95.648	-73.688	1156.56	0.14	-2.45	0.28	-78	55.5	-834	0	0	0	0	0	0	0	0	0	0	0	0	0	0	0	0	0	0	156718	242280	0
1651657278381	-114.68	-67.832	1060.912	0.35	-1.82	-0.56	-72	54	-837	0	0	0	0	0	0	0	0	0	0	0	0	0	0	0	0	0	0	156733	242305	0
1651657278391	1.952	-55.632	1016.992	0	-0.77	-2.87	-76.5	55.5	-840	0	0	0	0	0	0	0	0	0	0	0	0	0	0	0	0	0	0	156725	242331	0
1651657278401	-2.44	-58.072	1056.52	-0.07	-0.77	-7.28	-75	54	-834	0	0	0	0	0	0	0	0	0	0	0	0	0	0	0	0	0	0	156743	242347	0
1651657278411	9.272	-62.464	1010.16	0.21	-0.42	-10.36	-76.5	52.5	-838.5	0	0	0	0	0	0	0	0	0	0	0	0	0	0	0	0	0	0	156752	242364	0
1651657278421	48.8	-26.352	830.088	1.19	1.47	-15.54	-82.5	58.5	-841.5	0	0	0	0	0	0	0	0	0	0	0	0	0	0	0	0	0	0	156755	242392	0
1651657278431	8.296	-55.632	970.632	1.19	1.33	-17.22	-84	55.5	-837	0	0	0	0	0	0	0	0	0	0	0	0	0	0	0	0	0	0	156760	242405	0
1651657278441	-10.736	-64.416	1079.944	0.42	-0.91	-12.39	-82.5	55.5	-832.5	0	0	0	0	0	0	0	0	0	0	0	0	0	0	0	0	0	0	156757	242434	0
1651657278451	-107.36	-28.304	933.544	0.42	0.56	-1.75	-79.5	54	-838.5	0	0	0	0	0	0	0	0	0	0	0	0	0	0	0	0	0	0	156763	242444	0
1651657278461	-35.136	61.488	1031.144	0.21	-0.21	0	-82.5	48	-843	0	0	0	0	0	0	0	0	0	0	0	0	0	0	0	0	0	0	156760	242447	0
1651657278471	-5.368	-26.352	1014.552	0.42	-0.77	0.42	-85.5	51	-838.5	0	0	0	0	0	0	0	0	0	0	0	0	0	0	0	0	0	0	156754	242462	0
1651657278481	-28.304	-13.664	864.736	0.91	1.75	0.56	-81	52.5	-838.5	0	0	0	0	0	0	0	0	0	0	0	0	0	0	0	0	0	0	156756	242477	0
1651657278491	37.576	-32.696	1040.904	0.42	-0.56	0.42	-79.5	51	-841.5	0	0	0	0	0	0	0	0	0	0	0	0	0	0	0	0	0	0	156755	242457	0
1651657278501	-12.688	-26.84	989.176	0.35	-0.28	-0.35	-81	49.5	-843	0	0	0	0	0	0	0	0	0	0	0	0	0	0	0	0	0	0	156757	242480	0
1651657278511	-17.568	-62.464	955.504	0.42	-0.07	-1.19	-84	48	-837	0	0	0	0	0	0	0	0	0	0	0	0	0	0	0	0	0	0	156750	242447	0
1651657278521	-52.704	-52.216	995.032	0.56	0.42	-1.05	-85.5	51	-832.5	0	0	0	0	0	0	0	0	0	0	0	0	0	0	0	0	0	0	156742	242484	0
1651657278531	-13.664	-35.136	1057.496	0.28	-0.84	-0.91	-81	49.5	-838.5	0	0	0	0	0	0	0	0	0	0	0	0	0	0	0	0	0	0	156734	242482	0
1651657278541	-64.416	-18.544	1035.536	0.14	-0.14	-0.42	-79.5	52.5	-840	0	0	0	0	0	0	0	0	0	0	0	0	0	0	0	0	0	0	156740	242492	0
1651657278551	-37.088	-43.92	998.936	0.35	0.77	-0.21	-82.5	54	-837	0	0	0	0	0	0	0	0	0	0	0	0	0	0	0	0	0	0	156727	242485	0
1651657278561	23.912	34.648	1049.688	-0.14	-1.33	-0.07	-82.5	51	-834	0	0	0	0	0	0	0	0	0	0	0	0	0	0	0	0	0	0	156727	242489	0
1651657278571	-29.28	11.712	995.032	0.42	0.14	-0.63	-84	51	-834	0	0	0	0	0	0	0	0	0	0	0	0	0	0	0	0	0	0	156722	242481	0
1651657278581	-41.968	15.128	1005.768	0.42	-0.07	-0.91	-82.5	48	-832.5	0	0	0	0	0	0	0	0	0	0	0	0	0	0	0	0	0	0	156705	242458	0
1651657278591	-41.48	16.104	992.592	0.28	-0.49	-1.05	-81	48	-831	0	0	0	0	0	0	0	0	0	0	0	0	0	0	0	0	0	0	156708	242465	0
1651657278601	-58.072	-25.376	988.2	0.35	-0.28	-1.05	-82.5	49.5	-837	0	0	0	0	0	0	0	0	0	0	0	0	0	0	0	0	0	0	156687	242438	0
1651657278611	-51.728	2.928	1041.88	0.14	-0.98	-0.49	-84	51	-840	0	0	0	0	0	0	0	0	0	0	0	0	0	0	0	0	0	0	156675	242417	0
1651657278621	-45.872	-76.616	986.736	0.35	-0.42	-0.35	-82.5	48	-837	0	0	0	0	0	0	0	0	0	0	0	0	0	0	0	0	0	0	156660	242403	0
1651657278631	-11.712	-43.432	983.808	0.28	-0.07	0.14	-81	49.5	-837	0	0	0	0	0	0	0	0	0	0	0	0	0	0	0	0	0	0	156599	242353	0
1651657278641	-5.856	-101.992	1018.456	0.14	-0.21	-1.4	-84	52.5	-840	0	0	0	0	0	0	0	0	0	0	0	0	0	0	0	0	0	0	156572	242369	0
1651657278651	-13.176	-16.104	947.696	0.49	0.7	-1.12	-85.5	51	-835.5	0	0	0	0	0	0	0	0	0	0	0	0	0	0	0	0	0	0	156624	242657	0
1651657278661	-79.056	-91.256	928.176	0.98	1.68	-1.26	-82.5	51	-831	0	0	0	0	0	0	0	0	0	0	0	0	0	0	0	0	0	0	156717	242938	0
1651657278671	-59.048	24.888	1060.912	0.21	-1.05	-0.84	-81	52.5	-837	0	0	0	0	0	0	0	0	0	0	0	0	0	0	0	0	0	0	156792	242950	0
1651657278681	-27.816	-1.952	1046.76	0.07	-0.56	-0.7	-79.5	52.5	-835.5	0	0	0	0	0	0	0	0	0	0	0	0	0	0	0	0	0	0	156798	242825	0
1651657278691	-54.168	-3.416	993.08	0.56	0.28	-0.7	-81	57	-832.5	0	0	0	0	0	0	0	0	0	0	0	0	0	0	0	0	0	0	156789	242679	0
1651657278701	-22.448	-23.424	1041.392	0.21	-0.84	-0.42	-82.5	57	-831	0	0	0	0	0	0	0	0	0	0	0	0	0	0	0	0	0	0	156754	242569	0
1651657278711	-66.368	-1.952	1005.768	0.28	-0.21	-0.35	-81	52.5	-835.5	0	0	0	0	0	0	0	0	0	0	0	0	0	0	0	0	0	0	156727	242547	0
1651657278721	-13.664	-35.624	1058.96	0.28	-0.84	-0.56	-76.5	51	-838.5	0	0	0	0	0	0	0	0	0	0	0	0	0	0	0	0	0	0	156713	242551	0
1651657278731	-19.032	-11.224	1013.576	0.35	-0.21	-0.56	-79.5	51	-843	0	0	0	0	0	0	0	0	0	0	0	0	0	0	0	0	0	0	156735	242645	0
1651657278741	-21.472	-46.848	1015.04	0.07	-0.49	-0.56	-82.5	52.5	-844.5	0	0	0	0	0	0	0	0	0	0	0	0	0	0	0	0	0	0	156745	242703	0
1651657278751	-34.16	-14.64	1007.232	0.21	-0.14	-0.7	-76.5	52.5	-838.5	0	0	0	0	0	0	0	0	0	0	0	0	0	0	0	0	0	0	156766	242802	0
1651657278761	-29.28	-41.968	995.032	0.14	-0.14	-0.63	-78	49.5	-838.5	0	0	0	0	0	0	0	0	0	0	0	0	0	0	0	0	0	0	156801	242944	0
1651657278771	-35.624	-30.256	982.344	0.42	-0.14	-0.63	-79.5	48	-838.5	0	0	0	0	0	0	0	0	0	0	0	0	0	0	0	0	0	0	156824	243107	0
1651657278781	-36.112	-12.688	999.912	0.28	-0.14	-0.56	-76.5	51	-837	0	0	0	0	0	0	0	0	0	0	0	0	0	0	0	0	0	0	156860	243179	0
1651657278791	-18.544	-17.568	1024.312	0.28	-0.35	-0.63	-73.5	55.5	-835.5	0	0	0	0	0	0	0	0	0	0	0	0	0	0	0	0	0	0	156894	243195	0
1651657278801	-45.384	-17.08	981.856	0.35	0.14	-0.63	-79.5	55.5	-835.5	0	0	0	0	0	0	0	0	0	0	0	0	0	0	0	0	0	0	156894	243141	0
1651657278811	-39.528	-35.136	981.368	0.42	0	-0.77	-84	51	-838.5	0	0	0	0	0	0	0	0	0	0	0	0	0	0	0	0	0	0	156863	242942	0
1651657278820	-34.648	1.464	1035.048	0.28	-0.49	-0.56	-81	49.5	-837	0	0	0	0	0	0	0	0	0	0	0	0	0	0	0	0	0	0	156841	242716	0
1651657278830	-36.112	-28.792	1032.608	0.28	-0.56	-0.63	-76.5	51	-835.5	0	0	0	0	0	0	0	0	0	0	0	0	0	0	0	0	0	0	156805	242511	0
1651657278840	-37.576	-32.208	973.56	0.42	0.28	-0.63	-76.5	51	-844.5	0	0	0	0	0	0	0	0	0	0	0	0	0	0	0	0	0	0	156758	242344	0
1651657278850	-36.112	-36.6	1016.504	0.35	-0.28	-0.7	-81	54	-844.5	0	0	0	0	0	0	0	0	0	0	0	0	0	0	0	0	0	0	156729	242238	0
1651657278860	-30.256	-9.76	1020.896	0.21	-0.56	-0.56	-79.5	52.5	-844.5	0	0	0	0	0	0	0	0	0	0	0	0	0	0	0	0	0	0	156703	242158	0
1651657278870	-37.576	-46.36	998.936	0.35	0	-0.7	-81	52.5	-840	0	0	0	0	0	0	0	0	0	0	0	0	0	0	0	0	0	0	156682	242140	0
1651657278880	-38.064	-9.76	1022.848	0.28	-0.21	-0.63	-84	57	-840	0	0	0	0	0	0	0	0	0	0	0	0	0	0	0	0	0	0	156675	242104	0
1651657278890	-20.496	-34.648	1018.944	0.21	-0.56	-0.56	-81	58.5	-841.5	0	0	0	0	0	0	0	0	0	0	0	0	0	0	0	0	0	0	156674	242106	0
1651657278900	-40.504	-12.688	1001.864	0.28	-0.21	-0.77	-79.5	54	-840	0	0	0	0	0	0	0	0	0	0	0	0	0	0	0	0	0	0	156692	242087	0
1651657278910	-39.528	-40.016	998.936	0.35	-0.14	-0.7	-81	49.5	-838.5	0	0	0	0	0	0	0	0	0	0	0	0	0	0	0	0	0	0	156709	242086	0
1651657278920	-30.256	-7.32	997.96	0.21	-0.28	-0.56	-81	52.5	-835.5	0	0	0	0	0	0	0	0	0	0	0	0	0	0	0	0	0	0	156728	242096	0
1651657278930	-31.72	-27.328	1002.352	0.35	-0.35	-0.63	-79.5	52.5	-838.5	0	0	0	0	0	0	0	0	0	0	0	0	0	0	0	0	0	0	156724	242075	0
1651657278940	-41.968	-15.616	1002.352	0.35	-0.21	-0.56	-81	48	-841.5	0	0	0	0	0	0	0	0	0	0	0	0	0	0	0	0	0	0	156729	242121	0
1651657278950	-36.112	-34.16	991.616	0.42	-0.14	-0.7	-76.5	45	-837	0	0	0	0	0	0	0	0	0	0	0	0	0	0	0	0	0	0	156739	242139	0
1651657278960	-50.752	-61.976	997.472	0.49	-0.28	-0.7	-76.5	45	-834	0	0	0	0	0	0	0	0	0	0	0	0	0	0	0	0	0	0	156725	242190	0
1651657278970	-21.472	-15.128	1035.048	0.28	-0.7	-0.56	-84	49.5	-840	0	0	0	0	0	0	0	0	0	0	0	0	0	0	0	0	0	0	156707	242229	0
1651657278980	-36.112	-48.312	960.384	0.49	0.14	-0.77	-84	52.5	-837	0	0	0	0	0	0	0	0	0	0	0	0	0	0	0	0	0	0	156707	242333	0
1651657278990	-47.824	-13.176	1013.576	0.28	-0.21	-0.56	-84	52.5	-832.5	0	0	0	0	0	0	0	0	0	0	0	0	0	0	0	0	0	0	156736	242456	0
1651657279000	-15.616	-82.472	1016.016	0.14	-0.56	-0.77	-78	51	-835.5	0	0	0	0	0	0	0	0	0	0	0	0	0	0	0	0	0	0	156751	242512	0
1651657279010	-37.088	-34.16	1011.624	0.21	-0.14	-0.77	-76.5	49.5	-837	0	0	0	0	0	0	0	0	0	0	0	0	0	0	0	0	0	0	156789	242519	0
1651657279020	-7.808	-39.04	927.2	0.49	0.42	-0.7	-82.5	54	-837	0	0	0	0	0	0	0	0	0	0	0	0	0	0	0	0	0	0	156798	242520	0
1651657279031	-14.64	-5.368	984.784	0.28	-0.21	-0.56	-76.5	54	-828	0	0	0	0	0	0	0	0	0	0	0	0	0	0	0	0	0	0	156808	242523	0
1651657279041	-28.304	-28.304	992.592	0.28	-0.14	-0.63	-75	49.5	-831	0	0	0	0	0	0	0	0	0	0	0	0	0	0	0	0	0	0	156814	242540	0
1651657279051	-44.896	-4.392	1010.648	0.14	-0.56	-0.56	-81	51	-840	0	0	0	0	0	0	0	0	0	0	0	0	0	0	0	0	0	0	156823	242556	0
1651657279061	-27.816	-35.136	993.08	0.21	-0.28	-0.63	-85.5	54	-840	0	0	0	0	0	0	0	0	0	0	0	0	0	0	0	0	0	0	156812	242598	0
1651657279071	-40.992	-17.08	1007.72	0.35	-0.21	-0.63	-84	52.5	-838.5	0	0	0	0	0	0	0	0	0	0	0	0	0	0	0	0	0	0	156824	242615	0
1651657279081	-39.04	-21.96	1009.184	0.42	-0.21	-0.63	-79.5	49.5	-840	0	0	0	0	0	0	0	0	0	0	0	0	0	0	0	0	0	0	156819	242645	0
1651657279091	-35.136	-20.008	1022.36	0.35	-0.49	-0.63	-79.5	51	-837	0	0	0	0	0	0	0	0	0	0	0	0	0	0	0	0	0	0	156820	242697	0
1651657279101	-42.456	-40.992	1006.744	0.42	-0.14	-0.63	-76.5	54	-835.5	0	0	0	0	0	0	0	0	0	0	0	0	0	0	0	0	0	0	156818	242693	0
1651657279111	-48.312	-26.84	995.032	0.35	0	-0.63	-75	48	-837	0	0	0	0	0	0	0	0	0	0	0	0	0	0	0	0	0	0	156842	242701	0
1651657279121	-26.84	-35.136	1004.792	0.28	-0.21	-0.56	-81	48	-837	0	0	0	0	0	0	0	0	0	0	0	0	0	0	0	0	0	0	156829	242686	0
1651657279131	-21.472	-12.688	1025.776	0.28	-0.42	-0.49	-90	52.5	-837	0	0	0	0	0	0	0	0	0	0	0	0	0	0	0	0	0	0	156826	242667	0
1651657279141	-38.552	-27.816	1000.888	0.28	-0.14	-0.63	-93	49.5	-841.5	0	0	0	0	0	0	0	0	0	0	0	0	0	0	0	0	0	0	156822	242619	0
1651657279151	-32.208	-10.248	1010.648	0.28	-0.28	-0.63	-87	46.5	-841.5	0	0	0	0	0	0	0	0	0	0	0	0	0	0	0	0	0	0	156827	242629	0
1651657279161	-42.944	-27.328	1009.672	0.42	-0.21	-0.63	-76.5	45	-832.5	0	0	0	0	0	0	0	0	0	0	0	0	0	0	0	0	0	0	156804	242574	0
1651657279171	-31.72	-21.472	1010.16	0.63	-0.21	-0.49	-78	45	-834	0	0	0	0	0	0	0	0	0	0	0	0	0	0	0	0	0	0	156795	242549	0
1651657279181	-39.04	-22.936	999.424	0.56	-0.07	-0.49	-79.5	48	-838.5	0	0	0	0	0	0	0	0	0	0	0	0	0	0	0	0	0	0	156795	242536	0
1651657279191	-31.232	-26.84	1002.84	0.42	-0.21	-0.49	-81	57	-841.5	0	0	0	0	0	0	0	0	0	0	0	0	0	0	0	0	0	0	156775	242533	0
1651657279201	-33.672	-24.888	1006.744	0.35	-0.21	-0.63	-79.5	55.5	-837	0	0	0	0	0	0	0	0	0	0	0	0	0	0	0	0	0	0	156777	242523	0
1651657279211	-32.208	-26.84	1004.304	0.35	-0.21	-0.63	-78	49.5	-840	0	0	0	0	0	0	0	0	0	0	0	0	0	0	0	0	0	0	156774	242512	0
1651657279221	-35.136	-13.176	1007.72	0.28	-0.21	-0.7	-79.5	54	-843	0	0	0	0	0	0	0	0	0	0	0	0	0	0	0	0	0	0	156771	242521	0
1651657279231	-38.552	-25.864	1017.968	0.35	-0.35	-0.63	-78	54	-838.5	0	0	0	0	0	0	0	0	0	0	0	0	0	0	0	0	0	0	156775	242527	0
1651657279241	-36.6	-24.888	1010.16	0.28	-0.35	-0.63	-79.5	55.5	-837	0	0	0	0	0	0	0	0	0	0	0	0	0	0	0	0	0	0	156793	242535	0
1651657279251	-43.92	-26.352	1003.816	0.28	-0.21	-0.7	-79.5	60	-840	0	0	0	0	0	0	0	0	0	0	0	0	0	0	0	0	0	0	156797	242566	0
1651657279261	-45.384	-19.52	1011.624	0.28	-0.28	-0.63	-78	57	-840	0	0	0	0	0	0	0	0	0	0	0	0	0	0	0	0	0	0	156806	242551	0
1651657279271	-24.888	-16.592	1011.624	0.07	-0.42	-0.63	-76.5	52.5	-832.5	0	0	0	0	0	0	0	0	0	0	0	0	0	0	0	0	0	0	156806	242576	0
1651657279281	-28.792	-28.304	1003.328	0.14	-0.21	-0.63	-79.5	51	-832.5	0	0	0	0	0	0	0	0	0	0	0	0	0	0	0	0	0	0	156803	242569	0
1651657279291	-32.696	-22.448	1011.136	0.14	-0.28	-0.7	-85.5	54	-838.5	0	0	0	0	0	0	0	0	0	0	0	0	0	0	0	0	0	0	156819	242587	0
1651657279301	-35.624	-21.472	1008.208	0.21	-0.42	-0.7	-85.5	51	-843	0	0	0	0	0	0	0	0	0	0	0	0	0	0	0	0	0	0	156814	242600	0
1651657279311	-34.16	-18.544	1008.696	0.28	-0.28	-0.56	-79.5	48	-834	0	0	0	0	0	0	0	0	0	0	0	0	0	0	0	0	0	0	156812	242613	0
1651657279321	-31.72	-21.96	1007.232	0.35	-0.28	-0.7	-76.5	57	-837	0	0	0	0	0	0	0	0	0	0	0	0	0	0	0	0	0	0	156826	242642	0
1651657279331	-26.352	-31.232	1006.256	0.28	-0.28	-0.63	-75	58.5	-840	0	0	0	0	0	0	0	0	0	0	0	0	0	0	0	0	0	0	156824	242665	0
1651657279341	-32.208	-21.96	1008.208	0.28	-0.28	-0.49	-79.5	52.5	-835.5	0	0	0	0	0	0	0	0	0	0	0	0	0	0	0	0	0	0	156824	242697	0
1651657279351	-32.696	-24.888	1007.232	0.35	-0.35	-0.63	-82.5	48	-837	0	0	0	0	0	0	0	0	0	0	0	0	0	0	0	0	0	0	156862	242772	0
1651657279361	-30.256	-21.472	1013.088	0.28	-0.14	-0.56	-82.5	46.5	-843	0	0	0	0	0	0	0	0	0	0	0	0	0	0	0	0	0	0	156834	242709	0
1651657279371	-31.72	-21.96	1009.672	0.42	-0.28	-0.56	-79.5	51	-840	0	0	0	0	0	0	0	0	0	0	0	0	0	0	0	0	0	0	156838	242726	0
1651657279381	-39.528	-27.816	1012.6	0.28	-0.28	-0.63	-81	49.5	-835.5	0	0	0	0	0	0	0	0	0	0	0	0	0	0	0	0	0	0	156854	242776	0
1651657279391	-35.136	-19.032	1011.624	0.28	-0.28	-0.56	-84	52.5	-831	0	0	0	0	0	0	0	0	0	0	0	0	0	0	0	0	0	0	156852	242773	0
1651657279401	-38.064	-28.792	1006.256	0.28	-0.07	-0.56	-78	57	-834	0	0	0	0	0	0	0	0	0	0	0	0	0	0	0	0	0	0	156843	242778	0
1651657279411	-36.112	-20.984	1013.576	0.21	-0.14	-0.49	-78	51	-838.5	0	0	0	0	0	0	0	0	0	0	0	0	0	0	0	0	0	0	156845	242801	0
1651657279421	-20.496	-23.912	1010.16	0.28	-0.42	-0.56	-79.5	51	-841.5	0	0	0	0	0	0	0	0	0	0	0	0	0	0	0	0	0	0	156845	242804	0
1651657279431	-27.328	-23.424	1021.384	0.35	-0.28	-0.63	-79.5	54	-834	0	0	0	0	0	0	0	0	0	0	0	0	0	0	0	0	0	0	156859	242800	0
1651657279441	-40.504	-24.888	985.76	0.35	0.07	-0.7	-79.5	52.5	-834	0	0	0	0	0	0	0	0	0	0	0	0	0	0	0	0	0	0	156864	242834	0
1651657279451	-32.696	-30.256	1009.184	0.28	-0.42	-0.63	-78	52.5	-837	0	0	0	0	0	0	0	0	0	0	0	0	0	0	0	0	0	0	156867	242833	0
1651657279461	-32.208	-27.816	1003.816	0.35	-0.21	-0.7	-84	55.5	-838.5	0	0	0	0	0	0	0	0	0	0	0	0	0	0	0	0	0	0	156871	242847	0
1651657279471	-40.992	-25.376	1002.352	0.35	-0.14	-0.56	-82.5	54	-835.5	0	0	0	0	0	0	0	0	0	0	0	0	0	0	0	0	0	0	156866	242857	0
1651657279481	-34.648	-19.52	1011.624	0.35	-0.28	-0.63	-78	49.5	-834	0	0	0	0	0	0	0	0	0	0	0	0	0	0	0	0	0	0	156889	242872	0
1651657279491	-38.064	-14.152	1005.768	0.56	-0.21	-0.63	-79.5	51	-832.5	0	0	0	0	0	0	0	0	0	0	0	0	0	0	0	0	0	0	156875	242861	0
1651657279501	-32.696	-18.544	1007.72	0.49	-0.28	-0.63	-81	49.5	-840	0	0	0	0	0	0	0	0	0	0	0	0	0	0	0	0	0	0	156876	242874	0
1651657279511	-29.768	-28.792	1009.672	0.35	-0.35	-0.56	-82.5	49.5	-835.5	0	0	0	0	0	0	0	0	0	0	0	0	0	0	0	0	0	0	156876	242857	0
1651657279521	-39.528	-30.744	1002.84	0.35	-0.21	-0.63	-82.5	46.5	-832.5	0	0	0	0	0	0	0	0	0	0	0	0	0	0	0	0	0	0	156869	242861	0
1651657279531	-40.016	-20.984	1013.088	0.28	-0.28	-0.7	-84	48	-834	0	0	0	0	0	0	0	0	0	0	0	0	0	0	0	0	0	0	156885	242847	0
1651657279541	-34.648	-24.888	1013.088	0.28	-0.21	-0.77	-82.5	52.5	-835.5	0	0	0	0	0	0	0	0	0	0	0	0	0	0	0	0	0	0	156876	242868	0
1651657279551	-34.648	-16.592	1008.696	0.35	-0.28	-0.63	-84	52.5	-840	0	0	0	0	0	0	0	0	0	0	0	0	0	0	0	0	0	0	156874	242854	0
1651657279561	-36.112	-21.96	1008.208	0.35	-0.21	-0.63	-82.5	52.5	-834	0	0	0	0	0	0	0	0	0	0	0	0	0	0	0	0	0	0	156902	242914	0
1651657279571	-39.04	-25.864	1001.376	0.14	-0.28	-0.63	-82.5	52.5	-832.5	0	0	0	0	0	0	0	0	0	0	0	0	0	0	0	0	0	0	156878	242847	0
1651657279581	-37.088	-19.52	1008.208	0.28	-0.35	-0.63	-84	49.5	-834	0	0	0	0	0	0	0	0	0	0	0	0	0	0	0	0	0	0	156877	242847	0
1651657279591	-33.672	-20.496	1008.208	0.42	-0.21	-0.63	-79.5	48	-832.5	0	0	0	0	0	0	0	0	0	0	0	0	0	0	0	0	0	0	156865	242834	0
1651657279601	-37.576	-27.816	1007.72	0.42	-0.21	-0.63	-81	51	-837	0	0	0	0	0	0	0	0	0	0	0	0	0	0	0	0	0	0	156887	242831	0
1651657279611	-32.696	-25.376	1009.672	0.42	-0.35	-0.63	-87	55.5	-840	0	0	0	0	0	0	0	0	0	0	0	0	0	0	0	0	0	0	156889	242861	0
1651657279621	-30.744	-24.4	1011.624	0.28	-0.28	-0.7	-82.5	55.5	-838.5	0	0	0	0	0	0	0	0	0	0	0	0	0	0	0	0	0	0	156881	242857	0
1651657279631	-36.112	-22.448	1007.72	0.35	-0.28	-0.63	-81	52.5	-838.5	0	0	0	0	0	0	0	0	0	0	0	0	0	0	0	0	0	0	156896	242872	0
1651657279641	-28.792	-25.376	1008.696	0.28	-0.28	-0.7	-81	51	-840	0	0	0	0	0	0	0	0	0	0	0	0	0	0	0	0	0	0	156888	242878	0
1651657279651	-34.648	-27.816	1010.16	0.35	-0.28	-0.63	-81	51	-834	0	0	0	0	0	0	0	0	0	0	0	0	0	0	0	0	0	0	156890	242898	0
1651657279661	-33.184	-24.4	1004.792	0.35	-0.35	-0.63	-84	49.5	-835.5	0	0	0	0	0	0	0	0	0	0	0	0	0	0	0	0	0	0	156891	242880	0
1651657279671	-28.304	-27.328	1010.16	0.21	-0.28	-0.7	-79.5	51	-840	0	0	0	0	0	0	0	0	0	0	0	0	0	0	0	0	0	0	156886	242906	0
1651657279681	-28.792	-20.496	1006.256	0.21	-0.28	-0.63	-81	55.5	-837	0	0	0	0	0	0	0	0	0	0	0	0	0	0	0	0	0	0	156889	242917	0
1651657279691	-28.792	-24.888	1008.696	0.14	-0.35	-0.63	-85.5	57	-843	0	0	0	0	0	0	0	0	0	0	0	0	0	0	0	0	0	0	156882	242919	0
1651657279701	-36.112	-20.984	1000.4	0.14	-0.28	-0.63	-78	54	-838.5	0	0	0	0	0	0	0	0	0	0	0	0	0	0	0	0	0	0	156891	242930	0
1651657279711	-49.288	-33.184	1005.28	0.28	-0.21	-0.56	-78	58.5	-835.5	0	0	0	0	0	0	0	0	0	0	0	0	0	0	0	0	0	0	156881	242945	0
1651657279721	-31.72	-21.472	997.472	0.35	-0.21	-0.56	-79.5	60	-838.5	0	0	0	0	0	0	0	0	0	0	0	0	0	0	0	0	0	0	156885	242966	0
1651657279731	-29.28	-30.256	1012.112	0.35	-0.21	-0.49	-81	46.5	-837	0	0	0	0	0	0	0	0	0	0	0	0	0	0	0	0	0	0	156895	242981	0
1651657279741	-33.184	-19.52	1008.208	0.28	-0.28	-0.56	-82.5	39	-835.5	0	0	0	0	0	0	0	0	0	0	0	0	0	0	0	0	0	0	156893	242975	0
1651657279751	-26.84	-28.304	1005.768	0.28	-0.21	-0.63	-79.5	48	-832.5	0	0	0	0	0	0	0	0	0	0	0	0	0	0	0	0	0	0	156898	242998	0
1651657279761	-29.768	-20.984	1010.648	0.28	-0.28	-0.56	-79.5	52.5	-832.5	0	0	0	0	0	0	0	0	0	0	0	0	0	0	0	0	0	0	156916	243002	0
1651657279771	-39.04	-28.304	1006.744	0.28	-0.14	-0.63	-81	42	-837	0	0	0	0	0	0	0	0	0	0	0	0	0	0	0	0	0	0	156941	243095	0
1651657279781	-34.16	-26.84	1010.648	0.21	-0.28	-0.63	-85.5	45	-838.5	0	0	0	0	0	0	0	0	0	0	0	0	0	0	0	0	0	0	156911	243022	0
1651657279791	-39.04	-19.52	1006.744	0.28	-0.35	-0.63	-87	51	-837	0	0	0	0	0	0	0	0	0	0	0	0	0	0	0	0	0	0	156900	243037	0
1651657279801	-35.624	-27.816	1006.744	0.14	-0.28	-0.63	-87	54	-835.5	0	0	0	0	0	0	0	0	0	0	0	0	0	0	0	0	0	0	156900	243049	0
1651657279811	-33.672	-21.96	1011.136	0.07	-0.21	-0.63	-84	54	-837	0	0	0	0	0	0	0	0	0	0	0	0	0	0	0	0	0	0	156907	243044	0
1651657279821	-39.528	-18.544	1010.648	0.07	-0.42	-0.7	-79.5	52.5	-843	0	0	0	0	0	0	0	0	0	0	0	0	0	0	0	0	0	0	156896	243063	0
1651657279831	-35.624	-27.328	1008.696	0.28	-0.21	-0.63	-78	57	-843	0	0	0	0	0	0	0	0	0	0	0	0	0	0	0	0	0	0	156900	243057	0
1651657279841	-36.6	-23.424	1006.744	0.28	-0.14	-0.63	-79.5	55.5	-837	0	0	0	0	0	0	0	0	0	0	0	0	0	0	0	0	0	0	156899	243073	0
1651657279851	-29.768	-24.4	1006.256	0.28	-0.35	-0.7	-85.5	52.5	-840	0	0	0	0	0	0	0	0	0	0	0	0	0	0	0	0	0	0	156894	243073	0
1651657279861	-29.28	-25.864	1012.6	0.28	-0.28	-0.56	-85.5	49.5	-834	0	0	0	0	0	0	0	0	0	0	0	0	0	0	0	0	0	0	156894	243073	0
1651657279872	-34.648	-23.424	1012.112	0.28	-0.28	-0.63	-79.5	48	-834	0	0	0	0	0	0	0	0	0	0	0	0	0	0	0	0	0	0	156900	243097	0
1651657279882	-27.816	-21.472	1012.6	0.35	-0.35	-0.56	-78	51	-838.5	0	0	0	0	0	0	0	0	0	0	0	0	0	0	0	0	0	0	156896	243102	0
1651657279892	-38.552	-28.304	1009.672	0.35	-0.21	-0.7	-79.5	55.5	-837	0	0	0	0	0	0	0	0	0	0	0	0	0	0	0	0	0	0	156888	243124	0
1651657279902	-35.624	-27.328	1009.184	0.14	-0.35	-0.7	-81	54	-837	0	0	0	0	0	0	0	0	0	0	0	0	0	0	0	0	0	0	156891	243088	0
1651657279912	-22.936	-18.056	1002.84	0.14	-0.28	-0.63	-85.5	49.5	-835.5	0	0	0	0	0	0	0	0	0	0	0	0	0	0	0	0	0	0	156887	243057	0
1651657279922	-33.184	-18.544	1009.184	0.14	-0.35	-0.63	-87	48	-834	0	0	0	0	0	0	0	0	0	0	0	0	0	0	0	0	0	0	156884	243008	0
1651657279932	-34.16	-23.912	1011.624	0.14	-0.28	-0.63	-81	48	-832.5	0	0	0	0	0	0	0	0	0	0	0	0	0	0	0	0	0	0	156842	242873	0
1651657279942	-33.184	-22.936	1004.304	0.21	-0.35	-0.56	-78	49.5	-837	0	0	0	0	0	0	0	0	0	0	0	0	0	0	0	0	0	0	156815	242718	0
1651657279952	-49.288	-20.984	1012.112	0.35	-0.28	-0.56	-78	49.5	-838.5	0	0	0	0	0	0	0	0	0	0	0	0	0	0	0	0	0	0	156779	242536	0
1651657279962	-39.04	-24.888	1013.088	0.28	-0.28	-0.42	-79.5	51	-837	0	0	0	0	0	0	0	0	0	0	0	0	0	0	0	0	0	0	156721	242410	0
1651657279972	-32.696	-24.888	1013.088	0.35	-0.28	-0.49	-82.5	49.5	-832.5	0	0	0	0	0	0	0	0	0	0	0	0	0	0	0	0	0	0	156703	242301	0
1651657279982	-4.88	-7.32	1091.168	0	-1.12	-0.56	-84	51	-835.5	0	0	0	0	0	0	0	0	0	0	0	0	0	0	0	0	0	0	156707	242267	0
1651657279992	-25.864	-26.352	894.016	0.63	1.19	-1.05	-84	52.5	-834	0	0	0	0	0	0	0	0	0	0	0	0	0	0	0	0	0	0	156659	242152	0
1651657280002	31.72	-37.576	1085.312	-0.14	-1.89	-1.05	-81	51	-832.5	0	0	0	0	0	0	0	0	0	0	0	0	0	0	0	0	0	0	156656	242126	0
1651657280012	-86.864	25.376	918.904	0.63	1.05	-0.7	-84	48	-837	0	0	0	0	0	0	0	0	0	0	0	0	0	0	0	0	0	0	156658	242121	0
1651657280022	-6.344	-33.672	1029.68	-0.07	-1.05	-0.49	-85.5	46.5	-840	0	0	0	0	0	0	0	0	0	0	0	0	0	0	0	0	0	0	156646	242140	0
1651657280032	-17.08	1.952	1017.48	0.21	0	-0.14	-78	54	-837	0	0	0	0	0	0	0	0	0	0	0	0	0	0	0	0	0	0	156658	242144	0
1651657280042	-11.224	-4.88	1027.728	0.07	-0.7	-0.07	-78	55.5	-838.5	0	0	0	0	0	0	0	0	0	0	0	0	0	0	0	0	0	0	156653	242177	0
1651657280052	-28.792	-32.208	1014.552	0.21	-0.14	-0.56	-78	54	-834	0	0	0	0	0	0	0	0	0	0	0	0	0	0	0	0	0	0	156668	242228	0
1651657280062	-40.504	-16.592	992.592	0.35	0.07	-0.77	-76.5	49.5	-834	0	0	0	0	0	0	0	0	0	0	0	0	0	0	0	0	0	0	156671	242270	0
1651657280072	-30.256	-20.496	1016.504	0.28	-0.56	-0.98	-82.5	43.5	-835.5	0	0	0	0	0	0	0	0	0	0	0	0	0	0	0	0	0	0	156687	242324	0
1651657280082	-48.312	-32.696	1014.552	0.35	-0.35	-0.77	-84	48	-834	0	0	0	0	0	0	0	0	0	0	0	0	0	0	0	0	0	0	156694	242368	0
1651657280092	-54.656	-19.52	1034.072	0.14	-0.56	-0.56	-82.5	52.5	-831	0	0	0	0	0	0	0	0	0	0	0	0	0	0	0	0	0	0	156700	242396	0
1651657280102	-43.432	-23.424	986.248	0.35	-0.28	-0.56	-82.5	49.5	-832.5	0	0	0	0	0	0	0	0	0	0	0	0	0	0	0	0	0	0	156710	242463	0
1651657280112	-26.84	-11.712	1013.088	0.28	-0.42	-0.7	-79.5	49.5	-837	0	0	0	0	0	0	0	0	0	0	0	0	0	0	0	0	0	0	156711	242490	0
1651657280122	-23.912	-16.592	1019.432	0.28	-0.35	-0.77	-82.5	55.5	-841.5	0	0	0	0	0	0	0	0	0	0	0	0	0	0	0	0	0	0	156721	242515	0
1651657280132	-20.984	-14.152	1003.816	0.42	-0.49	-0.98	-87	54	-844.5	0	0	0	0	0	0	0	0	0	0	0	0	0	0	0	0	0	0	156714	242555	0
1651657280142	-26.84	-22.936	1004.792	0.42	-0.56	-0.91	-81	52.5	-838.5	0	0	0	0	0	0	0	0	0	0	0	0	0	0	0	0	0	0	156722	242581	0
1651657280152	-38.064	-36.112	1010.648	0.35	-0.35	-0.98	-78	54	-838.5	0	0	0	0	0	0	0	0	0	0	0	0	0	0	0	0	0	0	156725	242583	0
1651657280162	-41.968	-31.232	1002.352	0.28	-0.28	-0.77	-79.5	51	-838.5	0	0	0	0	0	0	0	0	0	0	0	0	0	0	0	0	0	0	156744	242584	0
1651657280172	-35.136	-20.984	1003.816	0.28	-0.28	-0.56	-79.5	51	-835.5	0	0	0	0	0	0	0	0	0	0	0	0	0	0	0	0	0	0	156734	242597	0
1651657280182	-19.52	-14.152	1017.968	0.21	-0.42	-0.42	-81	54	-835.5	0	0	0	0	0	0	0	0	0	0	0	0	0	0	0	0	0	0	156745	242605	0
1651657280192	-14.152	-19.52	1011.136	0.28	-0.21	-0.49	-85.5	51	-837	0	0	0	0	0	0	0	0	0	0	0	0	0	0	0	0	0	0	156768	242699	0
1651657280202	-24.4	-11.712	1003.328	0.28	-0.14	-0.56	-85.5	51	-834	0	0	0	0	0	0	0	0	0	0	0	0	0	0	0	0	0	0	156762	242618	0
1651657280212	-32.208	-10.248	1005.768	0.35	-0.21	-0.7	-79.5	52.5	-840	0	0	0	0	0	0	0	0	0	0	0	0	0	0	0	0	0	0	156759	242609	0
1651657280222	-34.16	-20.008	1005.768	0.42	-0.21	-0.56	-79.5	54	-838.5	0	0	0	0	0	0	0	0	0	0	0	0	0	0	0	0	0	0	156732	242608	0
1651657280232	-45.384	-27.816	1011.136	0.56	-0.14	-0.56	-79.5	55.5	-837	0	0	0	0	0	0	0	0	0	0	0	0	0	0	0	0	0	0	156756	242616	0
1651657280242	-40.992	-19.032	1013.576	0.63	-0.14	-0.56	-79.5	55.5	-835.5	0	0	0	0	0	0	0	0	0	0	0	0	0	0	0	0	0	0	156737	242594	0
1651657280252	-31.232	-32.696	1008.696	0.56	-0.35	-0.42	-82.5	54	-837	0	0	0	0	0	0	0	0	0	0	0	0	0	0	0	0	0	0	156745	242591	0
1651657280262	-28.304	-31.232	1007.232	0.42	-0.35	-0.49	-84	49.5	-840	0	0	0	0	0	0	0	0	0	0	0	0	0	0	0	0	0	0	156741	242584	0
1651657280272	-20.496	-25.864	1006.744	0.28	-0.28	-0.56	-82.5	52.5	-843	0	0	0	0	0	0	0	0	0	0	0	0	0	0	0	0	0	0	156727	242576	0
1651657280282	-29.768	-28.792	1008.696	0.28	-0.14	-0.63	-78	55.5	-840	0	0	0	0	0	0	0	0	0	0	0	0	0	0	0	0	0	0	156718	242524	0
1651657280292	-35.136	-33.672	1011.136	0.28	-0.21	-0.63	-81	49.5	-840	0	0	0	0	0	0	0	0	0	0	0	0	0	0	0	0	0	0	156712	242502	0
1651657280302	-39.04	-25.864	1012.112	0.35	-0.28	-0.56	-84	48	-840	0	0	0	0	0	0	0	0	0	0	0	0	0	0	0	0	0	0	156717	242488	0
1651657280312	-40.504	-20.008	1008.696	0.28	-0.28	-0.63	-79.5	49.5	-834	0	0	0	0	0	0	0	0	0	0	0	0	0	0	0	0	0	0	156716	242469	0
1651657280322	-36.6	-14.152	1010.16	0.21	-0.28	-0.7	-78	43.5	-832.5	0	0	0	0	0	0	0	0	0	0	0	0	0	0	0	0	0	0	156736	242490	0
1651657280332	-27.816	-15.616	1006.744	0.07	-0.28	-0.7	-81	45	-837	0	0	0	0	0	0	0	0	0	0	0	0	0	0	0	0	0	0	156727	242463	0
1651657280342	-24.4	-20.008	1008.696	0.28	-0.35	-0.7	-81	52.5	-838.5	0	0	0	0	0	0	0	0	0	0	0	0	0	0	0	0	0	0	156725	242461	0
1651657280352	-40.504	-25.376	1009.184	0.21	-0.21	-0.56	-76.5	54	-838.5	0	0	0	0	0	0	0	0	0	0	0	0	0	0	0	0	0	0	156773	242652	0
1651657280362	-34.16	-20.984	1007.232	0.28	-0.21	-0.7	-78	51	-835.5	0	0	0	0	0	0	0	0	0	0	0	0	0	0	0	0	0	0	156761	242673	0
1651657280372	-26.352	-25.376	1009.184	0.28	-0.28	-0.7	-79.5	51	-834	0	0	0	0	0	0	0	0	0	0	0	0	0	0	0	0	0	0	156764	242659	0
1651657280382	-32.696	-21.472	1010.648	0.35	-0.35	-0.63	-79.5	45	-835.5	0	0	0	0	0	0	0	0	0	0	0	0	0	0	0	0	0	0	156782	242671	0
1651657280392	-43.92	-20.008	1009.184	0.21	-0.35	-0.7	-78	46.5	-840	0	0	0	0	0	0	0	0	0	0	0	0	0	0	0	0	0	0	156804	242697	0
1651657280402	-39.528	-26.84	1005.28	0.28	-0.21	-0.7	-81	54	-840	0	0	0	0	0	0	0	0	0	0	0	0	0	0	0	0	0	0	156822	242774	0
1651657280412	-30.744	-20.496	1006.744	0.21	-0.42	-0.63	-82.5	52.5	-838.5	0	0	0	0	0	0	0	0	0	0	0	0	0	0	0	0	0	0	156892	242845	0
1651657280422	-27.816	-20.496	1006.744	0.14	-0.28	-0.56	-79.5	51	-837	0	0	0	0	0	0	0	0	0	0	0	0	0	0	0	0	0	0	156929	242916	0
1651657280432	-27.328	-18.544	1010.16	0.14	-0.28	-0.7	-79.5	52.5	-837	0	0	0	0	0	0	0	0	0	0	0	0	0	0	0	0	0	0	156956	243011	0
1651657280442	-30.256	-28.792	1001.864	0.21	-0.14	-0.77	-76.5	51	-832.5	0	0	0	0	0	0	0	0	0	0	0	0	0	0	0	0	0	0	156976	243089	0
1651657280452	-24.4	-31.232	1007.72	0.14	-0.21	-0.63	-78	52.5	-835.5	0	0	0	0	0	0	0	0	0	0	0	0	0	0	0	0	0	0	156991	243205	0
1651657280462	-37.088	-20.008	1004.304	0.35	-0.21	-0.42	-82.5	54	-837	0	0	0	0	0	0	0	0	0	0	0	0	0	0	0	0	0	0	157039	243278	0
1651657280472	-24.4	-21.96	1006.744	0.35	-0.14	-0.42	-84	51	-837	0	0	0	0	0	0	0	0	0	0	0	0	0	0	0	0	0	0	157022	243332	0
1651657280482	-32.696	-21.472	1008.696	0.35	-0.14	-0.42	-85.5	49.5	-841.5	0	0	0	0	0	0	0	0	0	0	0	0	0	0	0	0	0	0	157036	243371	0
1651657280492	-25.376	-22.448	1010.648	0.35	-0.21	-0.56	-82.5	51	-841.5	0	0	0	0	0	0	0	0	0	0	0	0	0	0	0	0	0	0	157042	243395	0
1651657280502	-34.648	-23.912	1017.48	0.35	-0.14	-0.56	-85.5	51	-838.5	0	0	0	0	0	0	0	0	0	0	0	0	0	0	0	0	0	0	157051	243441	0
1651657280512	-35.624	-23.912	1010.648	0.28	-0.07	-0.56	-82.5	52.5	-837	0	0	0	0	0	0	0	0	0	0	0	0	0	0	0	0	0	0	157058	243460	0
1651657280522	-37.576	-23.912	1010.648	0.28	-0.14	-0.56	-79.5	57	-840	0	0	0	0	0	0	0	0	0	0	0	0	0	0	0	0	0	0	157070	243467	0
1651657280532	-33.672	-25.376	1010.16	0.28	-0.14	-0.56	-81	52.5	-837	0	0	0	0	0	0	0	0	0	0	0	0	0	0	0	0	0	0	157067	243485	0
1651657280542	-39.528	-25.864	1003.816	0.42	-0.28	-0.56	-81	51	-834	0	0	0	0	0	0	0	0	0	0	0	0	0	0	0	0	0	0	157080	243488	0
1651657280552	-36.6	-23.424	1009.672	0.56	-0.21	-0.63	-85.5	54	-840	0	0	0	0	0	0	0	0	0	0	0	0	0	0	0	0	0	0	157090	243467	0
1651657280562	-38.064	-24.888	1008.208	0.56	-0.14	-0.63	-85.5	48	-844.5	0	0	0	0	0	0	0	0	0	0	0	0	0	0	0	0	0	0	157105	243472	0
1651657280572	-52.704	-28.304	977.464	0.77	0.14	-0.7	-84	45	-843	0	0	0	0	0	0	0	0	0	0	0	0	0	0	0	0	0	0	157098	243458	0
1651657280582	-43.432	-36.6	987.712	0.42	-0.07	-0.77	-81	46.5	-843	0	0	0	0	0	0	0	0	0	0	0	0	0	0	0	0	0	0	157100	243445	0
1651657280592	-41.968	-36.6	998.448	0.28	-0.35	-0.77	-76.5	49.5	-840	0	0	0	0	0	0	0	0	0	0	0	0	0	0	0	0	0	0	157095	243447	0
1651657280602	-41.48	-15.616	1014.064	0.28	-0.28	-0.63	-81	52.5	-838.5	0	0	0	0	0	0	0	0	0	0	0	0	0	0	0	0	0	0	157082	243440	0
1651657280612	-39.04	-14.152	1003.816	0.28	-0.28	-0.63	-79.5	54	-838.5	0	0	0	0	0	0	0	0	0	0	0	0	0	0	0	0	0	0	157037	243462	0
1651657280622	-40.992	-22.448	1012.6	0.21	-0.28	-0.63	-78	49.5	-837	0	0	0	0	0	0	0	0	0	0	0	0	0	0	0	0	0	0	157095	243456	0
1651657280632	-41.968	-22.448	1012.6	0.28	-0.28	-0.63	-76.5	45	-838.5	0	0	0	0	0	0	0	0	0	0	0	0	0	0	0	0	0	0	157115	243489	0
1651657280642	-33.184	-25.376	1008.696	0.28	-0.28	-0.63	-76.5	48	-835.5	0	0	0	0	0	0	0	0	0	0	0	0	0	0	0	0	0	0	157125	243509	0
1651657280652	-37.576	-21.96	1009.184	0.42	-0.21	-0.56	-81	52.5	-841.5	0	0	0	0	0	0	0	0	0	0	0	0	0	0	0	0	0	0	157129	243515	0
1651657280662	-37.088	-27.328	1005.768	0.35	-0.21	-0.63	-81	52.5	-844.5	0	0	0	0	0	0	0	0	0	0	0	0	0	0	0	0	0	0	157139	243514	0
1651657280672	-28.304	-24.888	1013.576	0.21	-0.42	-0.56	-84	52.5	-844.5	0	0	0	0	0	0	0	0	0	0	0	0	0	0	0	0	0	0	157137	243519	0
1651657280682	-40.504	-20.984	1006.256	0.21	-0.28	-0.63	-84	48	-844.5	0	0	0	0	0	0	0	0	0	0	0	0	0	0	0	0	0	0	157145	243537	0
1651657280692	-27.816	-20.008	1004.792	0.35	-0.28	-0.7	-81	51	-840	0	0	0	0	0	0	0	0	0	0	0	0	0	0	0	0	0	0	157164	243565	0
1651657280702	-39.528	-35.136	1001.864	0.35	-0.14	-0.63	-85.5	52.5	-840	0	0	0	0	0	0	0	0	0	0	0	0	0	0	0	0	0	0	157178	243570	0
1651657280713	-36.6	-26.352	1009.184	0.28	-0.28	-0.63	-88.5	52.5	-840	0	0	0	0	0	0	0	0	0	0	0	0	0	0	0	0	0	0	157187	243597	0
1651657280723	-40.504	-24.888	1008.696	0.21	-0.28	-0.63	-87	57	-838.5	0	0	0	0	0	0	0	0	0	0	0	0	0	0	0	0	0	0	157199	243616	0
1651657280733	-41.48	-20.496	1007.72	0.35	-0.35	-0.84	-84	57	-837	0	0	0	0	0	0	0	0	0	0	0	0	0	0	0	0	0	0	157202	243621	0
1651657280743	-38.552	-21.472	1007.232	0.21	-0.21	-0.77	-75	52.5	-834	0	0	0	0	0	0	0	0	0	0	0	0	0	0	0	0	0	0	157207	243632	0
1651657280753	-33.184	-15.128	1014.064	0.28	-0.35	-0.7	-72	46.5	-835.5	0	0	0	0	0	0	0	0	0	0	0	0	0	0	0	0	0	0	157216	243633	0
1651657280763	-40.016	-25.376	1006.744	0.14	-0.35	-0.84	-78	46.5	-838.5	0	0	0	0	0	0	0	0	0	0	0	0	0	0	0	0	0	0	157211	243623	0
1651657280773	-37.088	-22.936	1009.672	0.14	-0.35	-0.7	-81	48	-841.5	0	0	0	0	0	0	0	0	0	0	0	0	0	0	0	0	0	0	157197	243629	0
1651657280783	-39.528	-19.52	1005.768	0.21	-0.35	-0.77	-79.5	46.5	-838.5	0	0	0	0	0	0	0	0	0	0	0	0	0	0	0	0	0	0	157181	243610	0
1651657280793	-28.304	-20.496	1010.648	0.28	-0.28	-0.63	-81	51	-832.5	0	0	0	0	0	0	0	0	0	0	0	0	0	0	0	0	0	0	157204	243620	0
1651657280803	-29.28	-28.792	1008.696	0.35	-0.14	-0.56	-79.5	54	-834	0	0	0	0	0	0	0	0	0	0	0	0	0	0	0	0	0	0	157190	243592	0
1651657280813	-28.304	-24.888	1011.136	0.28	-0.14	-0.56	-76.5	48	-838.5	0	0	0	0	0	0	0	0	0	0	0	0	0	0	0	0	0	0	157200	243582	0
1651657280823	-31.72	-24.888	1006.256	0.35	-0.21	-0.77	-78	48	-840	0	0	0	0	0	0	0	0	0	0	0	0	0	0	0	0	0	0	157134	243600	0
1651657280833	-28.304	-20.496	1004.792	0.35	-0.28	-0.63	-84	52.5	-834	0	0	0	0	0	0	0	0	0	0	0	0	0	0	0	0	0	0	157213	243594	0
1651657280843	-35.624	-24.888	1011.624	0.28	-0.28	-0.63	-84	52.5	-835.5	0	0	0	0	0	0	0	0	0	0	0	0	0	0	0	0	0	0	157223	243608	0
1651657280853	-32.208	-22.448	1011.136	0.42	-0.28	-0.7	-82.5	57	-838.5	0	0	0	0	0	0	0	0	0	0	0	0	0	0	0	0	0	0	157221	243610	0
1651657280863	-34.648	-23.912	1007.232	0.35	-0.21	-0.63	-84	57	-835.5	0	0	0	0	0	0	0	0	0	0	0	0	0	0	0	0	0	0	157240	243615	0
1651657280873	-31.72	-23.424	1006.744	0.21	-0.35	-0.63	-85.5	54	-838.5	0	0	0	0	0	0	0	0	0	0	0	0	0	0	0	0	0	0	157231	243640	0
1651657280883	-36.6	-30.744	1005.768	0.14	-0.42	-0.56	-79.5	55.5	-841.5	0	0	0	0	0	0	0	0	0	0	0	0	0	0	0	0	0	0	157219	243619	0
1651657280893	-42.944	-32.208	1006.744	0.14	-0.42	-0.63	-73.5	51	-834	0	0	0	0	0	0	0	0	0	0	0	0	0	0	0	0	0	0	157223	243567	0
1651657280903	-38.064	-23.912	1003.328	0.28	-0.28	-0.7	-76.5	52.5	-832.5	0	0	0	0	0	0	0	0	0	0	0	0	0	0	0	0	0	0	157208	243515	0
1651657280913	-34.648	-23.424	1007.72	0.28	-0.35	-0.7	-81	55.5	-837	0	0	0	0	0	0	0	0	0	0	0	0	0	0	0	0	0	0	157199	243431	0
1651657280923	-37.088	-31.72	1003.816	0.28	-0.28	-0.63	-79.5	49.5	-840	0	0	0	0	0	0	0	0	0	0	0	0	0	0	0	0	0	0	157166	243341	0
1651657280933	-35.136	-23.912	1011.136	0.35	-0.28	-0.63	-79.5	48	-841.5	0	0	0	0	0	0	0	0	0	0	0	0	0	0	0	0	0	0	157144	243259	0
1651657280943	-35.136	-30.744	1004.792	0.28	-0.14	-0.63	-85.5	48	-840	0	0	0	0	0	0	0	0	0	0	0	0	0	0	0	0	0	0	157125	243231	0
1651657280953	-30.256	-21.96	1005.768	0.28	-0.28	-0.7	-85.5	45	-841.5	0	0	0	0	0	0	0	0	0	0	0	0	0	0	0	0	0	0	157111	243206	0
1651657280963	-30.256	-20.496	1009.184	0.21	-0.28	-0.7	-81	48	-843	0	0	0	0	0	0	0	0	0	0	0	0	0	0	0	0	0	0	157110	243194	0
1651657280973	-24.4	-22.448	1009.184	0.14	-0.28	-0.63	-81	52.5	-841.5	0	0	0	0	0	0	0	0	0	0	0	0	0	0	0	0	0	0	157100	243212	0
1651657280983	-30.256	-18.544	1009.672	0.07	-0.42	-0.63	-81	55.5	-838.5	0	0	0	0	0	0	0	0	0	0	0	0	0	0	0	0	0	0	157097	243252	0
1651657280993	-34.16	-20.008	1007.72	0.14	-0.35	-0.56	-79.5	52.5	-837	0	0	0	0	0	0	0	0	0	0	0	0	0	0	0	0	0	0	157108	243282	0
1651657281003	-37.576	-20.984	1010.648	0.35	-0.42	-0.7	-79.5	51	-829.5	0	0	0	0	0	0	0	0	0	0	0	0	0	0	0	0	0	0	157114	243310	0
1651657281013	-32.208	-18.056	1009.184	0.28	-0.28	-0.56	-75	49.5	-838.5	0	0	0	0	0	0	0	0	0	0	0	0	0	0	0	0	0	0	157107	243334	0
1651657281023	-30.256	-21.472	1008.696	0.35	-0.28	-0.63	-78	52.5	-841.5	0	0	0	0	0	0	0	0	0	0	0	0	0	0	0	0	0	0	157124	243373	0
1651657281033	-31.72	-23.912	1009.672	0.35	-0.28	-0.56	-82.5	54	-837	0	0	0	0	0	0	0	0	0	0	0	0	0	0	0	0	0	0	157091	243418	0
1651657281043	-37.576	-27.328	1011.136	0.35	-0.21	-0.56	-79.5	54	-835.5	0	0	0	0	0	0	0	0	0	0	0	0	0	0	0	0	0	0	157154	243445	0
1651657281053	-37.576	-21.472	1010.648	0.35	-0.14	-0.56	-78	54	-837	0	0	0	0	0	0	0	0	0	0	0	0	0	0	0	0	0	0	157157	243481	0
1651657281063	-26.352	-24.4	1012.6	0.35	-0.28	-0.7	-78	57	-837	0	0	0	0	0	0	0	0	0	0	0	0	0	0	0	0	0	0	157177	243518	0
1651657281073	-37.576	-18.056	1008.696	0.28	-0.14	-0.63	-82.5	58.5	-840	0	0	0	0	0	0	0	0	0	0	0	0	0	0	0	0	0	0	157174	243552	0
1651657281083	-39.04	-22.448	1001.864	0.14	-0.07	-0.63	-87	55.5	-840	0	0	0	0	0	0	0	0	0	0	0	0	0	0	0	0	0	0	157185	243583	0
1651657281093	-34.648	-20.496	1006.744	0.42	-0.21	-0.56	-82.5	54	-840	0	0	0	0	0	0	0	0	0	0	0	0	0	0	0	0	0	0	157190	243626	0
1651657281103	-40.016	-19.032	1007.232	0.49	-0.14	-0.7	-79.5	52.5	-837	0	0	0	0	0	0	0	0	0	0	0	0	0	0	0	0	0	0	157185	243634	0
1651657281113	-36.112	-29.768	1005.28	0.28	-0.14	-0.63	-81	52.5	-835.5	0	0	0	0	0	0	0	0	0	0	0	0	0	0	0	0	0	0	157200	243678	0
1651657281123	-42.944	-23.912	1006.744	0.35	-0.14	-0.56	-79.5	54	-835.5	0	0	0	0	0	0	0	0	0	0	0	0	0	0	0	0	0	0	157184	243697	0
1651657281133	-37.088	-30.256	1009.672	0.35	-0.21	-0.63	-81	52.5	-832.5	0	0	0	0	0	0	0	0	0	0	0	0	0	0	0	0	0	0	157201	243709	0
1651657281143	-33.672	-20.008	1013.576	0.28	-0.28	-0.7	-84	52.5	-835.5	0	0	0	0	0	0	0	0	0	0	0	0	0	0	0	0	0	0	157213	243715	0
1651657281153	-30.744	-21.472	983.808	0.35	-0.21	-0.7	-82.5	55.5	-835.5	0	0	0	0	0	0	0	0	0	0	0	0	0	0	0	0	0	0	157224	243737	0
1651657281163	15.128	42.456	1170.712	0	-2.8	-0.14	-85.5	57	-840	0	0	0	0	0	0	0	0	0	0	0	0	0	0	0	0	0	0	157231	243744	0
1651657281173	-88.328	59.048	1146.8	-0.21	-1.54	-0.49	-85.5	52.5	-841.5	0	0	0	0	0	0	0	0	0	0	0	0	0	0	0	0	0	0	157229	243759	0
1651657281183	-93.696	-110.776	771.528	1.05	3.01	-0.98	-84	51	-841.5	0	0	0	0	0	0	0	0	0	0	0	0	0	0	0	0	0	0	157235	243731	0
1651657281193	33.184	-16.592	1136.552	0.14	-2.03	-0.21	-87	52.5	-837	0	0	0	0	0	0	0	0	0	0	0	0	0	0	0	0	0	0	157231	243723	0
1651657281203	-18.056	-18.544	1075.064	0.63	-0.21	-0.56	-85.5	52.5	-844.5	0	0	0	0	0	0	0	0	0	0	0	0	0	0	0	0	0	0	157213	243699	0
1651657281213	-74.176	-37.576	951.6	0.56	0.63	-0.7	-87	49.5	-846	0	0	0	0	0	0	0	0	0	0	0	0	0	0	0	0	0	0	157216	243687	0
1651657281223	-10.248	-11.712	1047.248	0.21	-0.84	-0.56	-82.5	49.5	-838.5	0	0	0	0	0	0	0	0	0	0	0	0	0	0	0	0	0	0	157207	243660	0
1651657281233	-48.8	-17.08	1010.648	0.42	-0.07	-0.77	-76.5	54	-838.5	0	0	0	0	0	0	0	0	0	0	0	0	0	0	0	0	0	0	157216	243639	0
1651657281243	-65.88	-43.432	949.648	0.63	0.49	-0.91	-79.5	57	-838.5	0	0	0	0	0	0	0	0	0	0	0	0	0	0	0	0	0	0	157130	243575	0
1651657281253	-8.784	-3.904	1048.712	-0.07	-0.84	-0.49	-79.5	55.5	-837	0	0	0	0	0	0	0	0	0	0	0	0	0	0	0	0	0	0	157173	243569	0
1651657281263	-48.312	-31.232	968.192	0.63	0.42	-0.7	-79.5	46.5	-831	0	0	0	0	0	0	0	0	0	0	0	0	0	0	0	0	0	0	157187	243557	0
1651657281273	-53.68	-30.744	984.296	0.21	-0.14	-0.7	-79.5	46.5	-838.5	0	0	0	0	0	0	0	0	0	0	0	0	0	0	0	0	0	0	157187	243532	0
1651657281283	-35.624	-17.568	1048.712	0.28	-0.77	-0.63	-79.5	51	-841.5	0	0	0	0	0	0	0	0	0	0	0	0	0	0	0	0	0	0	157183	243530	0
1651657281293	-37.088	-9.272	994.056	0.21	-0.21	-0.56	-81	51	-840	0	0	0	0	0	0	0	0	0	0	0	0	0	0	0	0	0	0	157185	243539	0
1651657281303	-39.528	-34.648	976.488	0.28	0.07	-0.7	-82.5	54	-840	0	0	0	0	0	0	0	0	0	0	0	0	0	0	0	0	0	0	157198	243546	0
1651657281313	-36.6	-28.304	1010.16	0.14	-0.49	-0.63	-82.5	54	-840	0	0	0	0	0	0	0	0	0	0	0	0	0	0	0	0	0	0	157190	243542	0
1651657281323	-24.888	-38.552	1032.12	0.21	-0.42	-0.7	-82.5	52.5	-837	0	0	0	0	0	0	0	0	0	0	0	0	0	0	0	0	0	0	157208	243554	0
1651657281333	-71.736	-24.888	991.128	0.56	0.28	-0.63	-85.5	55.5	-835.5	0	0	0	0	0	0	0	0	0	0	0	0	0	0	0	0	0	0	157213	243567	0
1651657281343	-36.112	-7.808	1044.32	0.14	-0.63	-0.49	-82.5	54	-837	0	0	0	0	0	0	0	0	0	0	0	0	0	0	0	0	0	0	157231	243586	0
1651657281353	-12.2	-16.592	1037	0.21	-0.7	-0.56	-85.5	54	-835.5	0	0	0	0	0	0	0	0	0	0	0	0	0	0	0	0	0	0	157240	243597	0
1651657281363	-43.92	-36.112	974.048	0.49	0.28	-0.63	-87	57	-832.5	0	0	0	0	0	0	0	0	0	0	0	0	0	0	0	0	0	0	157239	243599	0
1651657281373	-29.28	-20.496	1002.352	0.28	-0.42	-0.7	-79.5	52.5	-835.5	0	0	0	0	0	0	0	0	0	0	0	0	0	0	0	0	0	0	157249	243616	0
1651657281383	-9.272	-14.152	1025.288	0.21	-0.63	-0.63	-78	51	-838.5	0	0	0	0	0	0	0	0	0	0	0	0	0	0	0	0	0	0	157263	243634	0
1651657281393	-40.992	-24.888	1004.304	0.42	-0.07	-0.7	-81	52.5	-835.5	0	0	0	0	0	0	0	0	0	0	0	0	0	0	0	0	0	0	157266	243629	0
1651657281403	-40.016	-27.816	1001.864	0.56	-0.21	-0.63	-82.5	54	-832.5	0	0	0	0	0	0	0	0	0	0	0	0	0	0	0	0	0	0	157275	243622	0
1651657281413	-27.328	-29.28	1004.304	0.28	-0.35	-0.56	-82.5	55.5	-840	0	0	0	0	0	0	0	0	0	0	0	0	0	0	0	0	0	0	157282	243633	0
1651657281423	-31.232	-16.104	1002.352	0.35	-0.14	-0.56	-76.5	46.5	-841.5	0	0	0	0	0	0	0	0	0	0	0	0	0	0	0	0	0	0	157287	243653	0
1651657281433	-38.552	-31.232	997.96	0.35	-0.07	-0.49	-78	46.5	-838.5	0	0	0	0	0	0	0	0	0	0	0	0	0	0	0	0	0	0	157313	243685	0
1651657281443	-23.912	-20.008	1015.528	0.21	-0.56	-0.42	-87	49.5	-838.5	0	0	0	0	0	0	0	0	0	0	0	0	0	0	0	0	0	0	157312	243720	0
1651657281453	-25.864	-29.768	1018.944	0.35	-0.28	-0.56	-85.5	52.5	-841.5	0	0	0	0	0	0	0	0	0	0	0	0	0	0	0	0	0	0	157226	243746	0
1651657281463	-7.32	-26.84	1010.16	0.28	-0.28	-0.7	-79.5	54	-844.5	0	0	0	0	0	0	0	0	0	0	0	0	0	0	0	0	0	0	157314	243772	0
1651657281473	-6.344	-42.944	1007.232	0.28	-0.21	-0.84	-79.5	49.5	-837	0	0	0	0	0	0	0	0	0	0	0	0	0	0	0	0	0	0	157310	243782	0
1651657281483	-31.72	-36.6	1013.088	0.35	-0.14	-0.91	-82.5	49.5	-837	0	0	0	0	0	0	0	0	0	0	0	0	0	0	0	0	0	0	157311	243791	0
1651657281493	-63.44	-20.984	1006.256	0.42	0.21	-0.7	-79.5	52.5	-837	0	0	0	0	0	0	0	0	0	0	0	0	0	0	0	0	0	0	157320	243819	0
1651657281503	-72.712	-26.84	1005.768	0.35	-0.21	-0.42	-79.5	57	-840	0	0	0	0	0	0	0	0	0	0	0	0	0	0	0	0	0	0	157318	243820	0
1651657281513	-37.576	-18.056	1011.624	0.35	-0.28	-0.28	-78	57	-840	0	0	0	0	0	0	0	0	0	0	0	0	0	0	0	0	0	0	157317	243845	0
1651657281523	-15.128	-25.864	1012.6	0.42	-0.21	-0.42	-79.5	52.5	-835.5	0	0	0	0	0	0	0	0	0	0	0	0	0	0	0	0	0	0	157325	243889	0
1651657281533	-10.248	-23.912	1000.4	0.35	-0.21	-0.7	-81	51	-837	0	0	0	0	0	0	0	0	0	0	0	0	0	0	0	0	0	0	157335	243874	0
1651657281543	-13.664	-21.96	1007.232	0.42	-0.21	-0.98	-81	52.5	-841.5	0	0	0	0	0	0	0	0	0	0	0	0	0	0	0	0	0	0	157318	243861	0
1651657281554	-35.624	-19.52	1010.16	0.35	-0.14	-1.05	-82.5	55.5	-840	0	0	0	0	0	0	0	0	0	0	0	0	0	0	0	0	0	0	157332	243846	0
1651657281564	-51.728	-22.936	1000.888	0.42	-0.14	-0.84	-76.5	48	-840	0	0	0	0	0	0	0	0	0	0	0	0	0	0	0	0	0	0	157330	243856	0
1651657281574	-58.56	-30.744	1005.768	0.35	-0.21	-0.63	-75	51	-840	0	0	0	0	0	0	0	0	0	0	0	0	0	0	0	0	0	0	157337	243863	0
1651657281584	-54.656	-31.232	1017.48	0.28	-0.28	-0.28	-82.5	54	-838.5	0	0	0	0	0	0	0	0	0	0	0	0	0	0	0	0	0	0	157351	243882	0
1651657281594	-37.088	-29.28	1000.888	0.35	-0.14	-0.28	-79.5	55.5	-840	0	0	0	0	0	0	0	0	0	0	0	0	0	0	0	0	0	0	157354	243886	0
1651657281604	-16.592	-22.936	1006.256	0.35	-0.28	-0.42	-75	60	-841.5	0	0	0	0	0	0	0	0	0	0	0	0	0	0	0	0	0	0	157351	243903	0
1651657281614	-17.08	-16.592	1013.576	0.28	-0.28	-0.77	-79.5	57	-840	0	0	0	0	0	0	0	0	0	0	0	0	0	0	0	0	0	0	157338	243906	0
1651657281624	-20.984	-20.496	1001.376	0.21	-0.28	-0.98	-85.5	54	-838.5	0	0	0	0	0	0	0	0	0	0	0	0	0	0	0	0	0	0	157340	243921	0
1651657281634	-36.6	-21.96	1002.84	0.42	-0.21	-0.98	-85.5	48	-841.5	0	0	0	0	0	0	0	0	0	0	0	0	0	0	0	0	0	0	157352	243925	0
1651657281644	-52.216	-22.448	1008.208	0.21	-0.14	-0.63	-85.5	51	-841.5	0	0	0	0	0	0	0	0	0	0	0	0	0	0	0	0	0	0	157318	243932	0
1651657281654	-54.168	-25.376	1010.648	0.21	-0.21	-0.56	-87	52.5	-838.5	0	0	0	0	0	0	0	0	0	0	0	0	0	0	0	0	0	0	157324	243973	0
1651657281664	-33.184	-15.128	1005.28	0.28	-0.14	-0.35	-85.5	48	-837	0	0	0	0	0	0	0	0	0	0	0	0	0	0	0	0	0	0	157262	243996	0
1651657281674	-31.232	-22.448	1005.28	0.28	-0.28	-0.42	-79.5	52.5	-837	0	0	0	0	0	0	0	0	0	0	0	0	0	0	0	0	0	0	157325	244000	0
1651657281684	-17.08	-20.496	1003.816	0.35	-0.21	-0.63	-78	54	-837	0	0	0	0	0	0	0	0	0	0	0	0	0	0	0	0	0	0	157321	243993	0
1651657281694	-24.4	-21.96	1005.768	0.42	-0.35	-0.91	-82.5	48	-837	0	0	0	0	0	0	0	0	0	0	0	0	0	0	0	0	0	0	157342	243996	0
1651657281704	-35.136	-21.96	1012.6	0.28	-0.28	-0.84	-82.5	54	-838.5	0	0	0	0	0	0	0	0	0	0	0	0	0	0	0	0	0	0	157342	243994	0
1651657281714	-38.064	-24.888	1007.72	0.28	-0.35	-0.77	-81	57	-841.5	0	0	0	0	0	0	0	0	0	0	0	0	0	0	0	0	0	0	157332	244002	0
1651657281724	-47.824	-18.544	1006.256	0.35	-0.21	-0.56	-78	51	-840	0	0	0	0	0	0	0	0	0	0	0	0	0	0	0	0	0	0	157333	244023	0
1651657281734	-38.064	-17.568	1007.232	0.35	-0.28	-0.35	-79.5	52.5	-837	0	0	0	0	0	0	0	0	0	0	0	0	0	0	0	0	0	0	157332	244070	0
1651657281744	-36.6	-23.424	1012.112	0.35	-0.28	-0.49	-84	51	-837	0	0	0	0	0	0	0	0	0	0	0	0	0	0	0	0	0	0	157335	244074	0
1651657281754	-28.792	-19.52	1010.16	0.28	-0.28	-0.42	-79.5	46.5	-837	0	0	0	0	0	0	0	0	0	0	0	0	0	0	0	0	0	0	157332	244092	0
1651657281764	-31.72	-28.304	1011.136	0.35	-0.35	-0.7	-76.5	51	-832.5	0	0	0	0	0	0	0	0	0	0	0	0	0	0	0	0	0	0	157330	244097	0
1651657281774	-33.672	-23.424	1007.72	0.35	-0.21	-0.77	-79.5	52.5	-832.5	0	0	0	0	0	0	0	0	0	0	0	0	0	0	0	0	0	0	157327	244113	0
1651657281784	-30.744	-21.96	1007.232	0.28	-0.14	-0.7	-81	46.5	-835.5	0	0	0	0	0	0	0	0	0	0	0	0	0	0	0	0	0	0	157335	244099	0
1651657281794	-41.968	-23.912	1008.696	0.42	-0.28	-0.63	-79.5	49.5	-838.5	0	0	0	0	0	0	0	0	0	0	0	0	0	0	0	0	0	0	157332	244099	0
1651657281804	-36.112	-30.256	1006.744	0.21	-0.21	-0.56	-81	55.5	-843	0	0	0	0	0	0	0	0	0	0	0	0	0	0	0	0	0	0	157317	244047	0
1651657281814	-38.064	-25.376	1001.864	0.35	-0.14	-0.56	-81	52.5	-837	0	0	0	0	0	0	0	0	0	0	0	0	0	0	0	0	0	0	157301	243987	0
1651657281824	-34.16	-24.888	1011.136	0.28	-0.21	-0.49	-82.5	49.5	-840	0	0	0	0	0	0	0	0	0	0	0	0	0	0	0	0	0	0	157277	243914	0
1651657281834	-39.528	-21.96	1007.72	0.28	-0.21	-0.7	-82.5	48	-840	0	0	0	0	0	0	0	0	0	0	0	0	0	0	0	0	0	0	157258	243783	0
1651657281844	-27.816	-22.936	1002.84	0.28	-0.28	-0.56	-78	49.5	-838.5	0	0	0	0	0	0	0	0	0	0	0	0	0	0	0	0	0	0	157240	243633	0
1651657281854	-39.528	-18.056	1010.16	0.35	-0.14	-0.77	-78	49.5	-838.5	0	0	0	0	0	0	0	0	0	0	0	0	0	0	0	0	0	0	157228	243573	0
1651657281864	-30.744	-20.008	1007.72	0.35	-0.21	-0.7	-75	48	-841.5	0	0	0	0	0	0	0	0	0	0	0	0	0	0	0	0	0	0	157207	243514	0
1651657281874	-43.432	-18.056	1008.208	0.35	-0.28	-0.77	-76.5	46.5	-843	0	0	0	0	0	0	0	0	0	0	0	0	0	0	0	0	0	0	157091	243487	0
1651657281884	-39.528	-22.448	1009.672	0.28	-0.28	-0.7	-79.5	49.5	-838.5	0	0	0	0	0	0	0	0	0	0	0	0	0	0	0	0	0	0	157163	243479	0
1651657281894	-36.6	-34.16	1013.088	0.35	-0.21	-0.63	-79.5	54	-837	0	0	0	0	0	0	0	0	0	0	0	0	0	0	0	0	0	0	157153	243493	0
1651657281904	-31.72	-32.208	1012.112	0.28	-0.28	-0.56	-78	49.5	-835.5	0	0	0	0	0	0	0	0	0	0	0	0	0	0	0	0	0	0	157160	243486	0
1651657281914	-31.72	-24.888	1011.624	0.28	-0.21	-0.63	-79.5	45	-835.5	0	0	0	0	0	0	0	0	0	0	0	0	0	0	0	0	0	0	157165	243442	0
1651657281924	-27.816	-21.96	1010.648	0.35	-0.21	-0.63	-84	49.5	-837	0	0	0	0	0	0	0	0	0	0	0	0	0	0	0	0	0	0	157194	243456	0
1651657281934	-40.504	-22.936	1012.112	0.35	-0.28	-0.77	-85.5	51	-838.5	0	0	0	0	0	0	0	0	0	0	0	0	0	0	0	0	0	0	157179	243450	0
1651657281944	-41.48	-21.96	1008.696	0.28	-0.35	-0.7	-85.5	49.5	-841.5	0	0	0	0	0	0	0	0	0	0	0	0	0	0	0	0	0	0	157193	243463	0
1651657281954	-29.768	-20.496	1013.088	0.35	-0.21	-0.56	-82.5	48	-840	0	0	0	0	0	0	0	0	0	0	0	0	0	0	0	0	0	0	157189	243515	0
1651657281964	-39.04	-21.96	1002.84	0.42	-0.21	-0.63	-81	48	-838.5	0	0	0	0	0	0	0	0	0	0	0	0	0	0	0	0	0	0	157196	243570	0
1651657281974	-41.48	-24.4	1011.136	0.35	-0.35	-0.56	-82.5	49.5	-838.5	0	0	0	0	0	0	0	0	0	0	0	0	0	0	0	0	0	0	157193	243600	0
1651657281984	-27.816	-17.568	1009.672	0.21	-0.28	-0.63	-79.5	54	-835.5	0	0	0	0	0	0	0	0	0	0	0	0	0	0	0	0	0	0	157189	243636	0
1651657281994	-31.72	-23.424	1009.672	0.28	-0.21	-0.7	-78	57	-838.5	0	0	0	0	0	0	0	0	0	0	0	0	0	0	0	0	0	0	157214	243656	0
1651657282004	-31.232	-24.888	1002.352	0.35	-0.28	-0.7	-81	54	-835.5	0	0	0	0	0	0	0	0	0	0	0	0	0	0	0	0	0	0	157208	243648	0
1651657282014	-37.576	-19.52	1007.232	0.35	-0.28	-0.7	-82.5	51	-832.5	0	0	0	0	0	0	0	0	0	0	0	0	0	0	0	0	0	0	157218	243661	0
1651657282024	-33.184	-21.472	1007.232	0.21	-0.35	-0.63	-78	51	-837	0	0	0	0	0	0	0	0	0	0	0	0	0	0	0	0	0	0	157226	243686	0
1651657282034	-42.456	-19.52	1002.84	0.35	-0.28	-0.63	-78	51	-838.5	0	0	0	0	0	0	0	0	0	0	0	0	0	0	0	0	0	0	157212	243719	0
1651657282044	-37.088	-24.888	1007.232	0.21	-0.28	-0.63	-85.5	54	-838.5	0	0	0	0	0	0	0	0	0	0	0	0	0	0	0	0	0	0	157203	243746	0
1651657282054	-23.424	-15.128	1008.208	0.28	-0.35	-0.63	-79.5	52.5	-838.5	0	0	0	0	0	0	0	0	0	0	0	0	0	0	0	0	0	0	157199	243774	0
1651657282064	-30.744	-29.768	1005.28	0.28	-0.28	-0.7	-79.5	55.5	-835.5	0	0	0	0	0	0	0	0	0	0	0	0	0	0	0	0	0	0	157177	243801	0
1651657282074	-30.744	-34.16	1007.72	0.28	-0.28	-0.7	-84	52.5	-838.5	0	0	0	0	0	0	0	0	0	0	0	0	0	0	0	0	0	0	157186	243809	0
1651657282084	-28.304	-28.792	1007.232	0.28	-0.28	-0.7	-84	43.5	-843	0	0	0	0	0	0	0	0	0	0	0	0	0	0	0	0	0	0	157111	243841	0
1651657282094	-39.528	-27.816	1007.232	0.28	-0.28	-0.7	-84	42	-838.5	0	0	0	0	0	0	0	0	0	0	0	0	0	0	0	0	0	0	157185	243842	0
1651657282104	-31.232	-25.864	1007.232	0.35	-0.28	-0.63	-79.5	46.5	-835.5	0	0	0	0	0	0	0	0	0	0	0	0	0	0	0	0	0	0	157159	243835	0
1651657282114	-32.696	-20.984	1012.6	0.28	-0.28	-0.56	-76.5	48	-837	0	0	0	0	0	0	0	0	0	0	0	0	0	0	0	0	0	0	157143	243846	0
1651657282124	-36.112	-31.72	1010.648	0.28	-0.28	-0.63	-79.5	48	-841.5	0	0	0	0	0	0	0	0	0	0	0	0	0	0	0	0	0	0	157125	243851	0
1651657282134	-30.256	-19.032	1005.768	0.35	-0.28	-0.63	-82.5	51	-843	0	0	0	0	0	0	0	0	0	0	0	0	0	0	0	0	0	0	157108	243827	0
1651657282144	-32.696	-20.008	1008.696	0.21	-0.28	-0.7	-84	48	-837	0	0	0	0	0	0	0	0	0	0	0	0	0	0	0	0	0	0	157065	243819	0
1651657282154	-25.864	-22.448	1005.28	0.28	-0.35	-0.7	-82.5	48	-840	0	0	0	0	0	0	0	0	0	0	0	0	0	0	0	0	0	0	157052	243791	0
1651657282164	-31.232	-21.96	1002.84	0.35	-0.21	-0.7	-81	49.5	-843	0	0	0	0	0	0	0	0	0	0	0	0	0	0	0	0	0	0	157034	243765	0
1651657282174	-39.04	-25.864	1008.208	0.42	-0.14	-0.63	-81	43.5	-838.5	0	0	0	0	0	0	0	0	0	0	0	0	0	0	0	0	0	0	157004	243738	0
1651657282184	-32.208	-17.08	1012.6	0.42	-0.28	-0.63	-85.5	51	-838.5	0	0	0	0	0	0	0	0	0	0	0	0	0	0	0	0	0	0	156983	243744	0
1651657282194	-40.016	-21.472	1008.208	0.28	-0.35	-0.63	-79.5	60	-835.5	0	0	0	0	0	0	0	0	0	0	0	0	0	0	0	0	0	0	156964	243750	0
1651657282204	-31.72	-23.424	1012.6	0.28	-0.28	-0.49	-81	54	-834	0	0	0	0	0	0	0	0	0	0	0	0	0	0	0	0	0	0	156945	243770	0
1651657282214	-32.696	-22.936	1006.256	0.28	-0.28	-0.63	-87	48	-832.5	0	0	0	0	0	0	0	0	0	0	0	0	0	0	0	0	0	0	156937	243782	0
1651657282224	-33.184	-23.912	1008.696	0.35	-0.28	-0.63	-87	49.5	-835.5	0	0	0	0	0	0	0	0	0	0	0	0	0	0	0	0	0	0	156937	243807	0
1651657282234	-32.696	-23.424	1007.232	0.35	-0.21	-0.7	-81	51	-843	0	0	0	0	0	0	0	0	0	0	0	0	0	0	0	0	0	0	156909	243819	0
1651657282244	-34.16	-24.4	1009.672	0.35	-0.28	-0.56	-82.5	52.5	-841.5	0	0	0	0	0	0	0	0	0	0	0	0	0	0	0	0	0	0	156886	243855	0
1651657282254	-35.136	-27.816	1006.744	0.35	-0.28	-0.7	-85.5	52.5	-837	0	0	0	0	0	0	0	0	0	0	0	0	0	0	0	0	0	0	156873	243893	0
1651657282264	-34.16	-21.472	1007.232	0.28	-0.28	-0.7	-87	49.5	-831	0	0	0	0	0	0	0	0	0	0	0	0	0	0	0	0	0	0	156852	243912	0
1651657282274	-40.992	-24.4	1006.256	0.35	-0.21	-0.77	-85.5	51	-831	0	0	0	0	0	0	0	0	0	0	0	0	0	0	0	0	0	0	156833	243931	0
1651657282284	-25.376	-18.544	1011.136	0.21	-0.35	-0.63	-76.5	54	-841.5	0	0	0	0	0	0	0	0	0	0	0	0	0	0	0	0	0	0	156850	243959	0
1651657282294	-32.208	-17.08	1016.016	0.42	-0.28	-0.7	-75	57	-844.5	0	0	0	0	0	0	0	0	0	0	0	0	0	0	0	0	0	0	156781	244015	0
1651657282304	-38.064	-20.496	1005.28	0.28	-0.35	-0.63	-73.5	57	-841.5	0	0	0	0	0	0	0	0	0	0	0	0	0	0	0	0	0	0	156849	244016	0
1651657282314	-38.552	-22.936	1010.648	0.28	-0.35	-0.7	-78	58.5	-835.5	0	0	0	0	0	0	0	0	0	0	0	0	0	0	0	0	0	0	156857	244052	0
1651657282324	-27.328	-21.472	1006.256	0.28	-0.28	-0.56	-81	58.5	-837	0	0	0	0	0	0	0	0	0	0	0	0	0	0	0	0	0	0	244083	244083	0
1651657282334	-32.208	-24.4	1009.184	0.28	-0.35	-0.63	-78	55.5	-838.5	0	0	0	0	0	0	0	0	0	0	0	0	0	0	0	0	0	0	156867	244119	0
1651657282344	-36.6	-20.008	1007.72	0.28	-0.21	-0.63	-81	54	-841.5	0	0	0	0	0	0	0	0	0	0	0	0	0	0	0	0	0	0	156867	244138	0
1651657282354	-38.064	-27.816	1007.232	0.28	-0.35	-0.63	-82.5	51	-841.5	0	0	0	0	0	0	0	0	0	0	0	0	0	0	0	0	0	0	156862	244163	0
1651657282364	-37.088	-32.208	1010.16	0.35	-0.21	-0.63	-82.5	52.5	-838.5	0	0	0	0	0	0	0	0	0	0	0	0	0	0	0	0	0	0	156871	244174	0
1651657282374	-38.552	-31.232	1006.256	0.42	-0.14	-0.7	-79.5	52.5	-832.5	0	0	0	0	0	0	0	0	0	0	0	0	0	0	0	0	0	0	156868	244170	0
1651657282384	-37.088	-21.96	1009.672	0.28	-0.21	-0.56	-79.5	54	-841.5	0	0	0	0	0	0	0	0	0	0	0	0	0	0	0	0	0	0	156858	244183	0
1651657282395	-41.48	-19.032	1008.696	0.35	-0.21	-0.63	-78	51	-838.5	0	0	0	0	0	0	0	0	0	0	0	0	0	0	0	0	0	0	156851	244179	0
1651657282405	-34.16	-18.056	1008.696	0.28	-0.21	-0.7	-75	49.5	-835.5	0	0	0	0	0	0	0	0	0	0	0	0	0	0	0	0	0	0	156845	244186	0
1651657282415	-33.184	-19.032	1011.624	0.35	-0.28	-0.7	-79.5	54	-840	0	0	0	0	0	0	0	0	0	0	0	0	0	0	0	0	0	0	156856	244189	0
1651657282425	-35.136	-24.4	1012.6	0.35	-0.35	-0.63	-79.5	55.5	-834	0	0	0	0	0	0	0	0	0	0	0	0	0	0	0	0	0	0	156857	244166	0
1651657282435	-46.36	-15.616	1010.16	0.28	-0.35	-0.56	-75	58.5	-835.5	0	0	0	0	0	0	0	0	0	0	0	0	0	0	0	0	0	0	156835	244162	0
1651657282445	-35.624	-25.376	1008.208	0.35	-0.35	-0.56	-78	49.5	-838.5	0	0	0	0	0	0	0	0	0	0	0	0	0	0	0	0	0	0	156840	244155	0
1651657282455	-42.944	-26.84	1007.72	0.35	-0.21	-0.63	-81	43.5	-847.5	0	0	0	0	0	0	0	0	0	0	0	0	0	0	0	0	0	0	156822	244154	0
1651657282465	-34.648	-24.4	1008.696	0.35	-0.28	-0.7	-79.5	51	-843	0	0	0	0	0	0	0	0	0	0	0	0	0	0	0	0	0	0	156812	244145	0
1651657282475	-34.648	-24.4	1005.28	0.42	-0.28	-0.56	-85.5	55.5	-838.5	0	0	0	0	0	0	0	0	0	0	0	0	0	0	0	0	0	0	156795	244129	0
1651657282485	-41.968	-20.984	1007.72	0.28	-0.28	-0.56	-84	57	-838.5	0	0	0	0	0	0	0	0	0	0	0	0	0	0	0	0	0	0	156783	244114	0
1651657282495	-33.672	-18.544	1011.624	0.35	-0.21	-0.63	-75	60	-831	0	0	0	0	0	0	0	0	0	0	0	0	0	0	0	0	0	0	156772	244070	0
1651657282505	-32.696	-22.936	1006.256	0.28	-0.14	-0.63	-73.5	57	-829.5	0	0	0	0	0	0	0	0	0	0	0	0	0	0	0	0	0	0	156715	244045	0
1651657282515	-36.6	-23.424	1006.744	0.21	-0.28	-0.56	-76.5	57	-838.5	0	0	0	0	0	0	0	0	0	0	0	0	0	0	0	0	0	0	156753	244002	0
1651657282525	-35.624	-18.544	1010.648	0.21	-0.21	-0.56	-81	54	-838.5	0	0	0	0	0	0	0	0	0	0	0	0	0	0	0	0	0	0	156745	243984	0
1651657282535	-38.064	-15.128	1007.72	0.28	-0.28	-0.63	-81	48	-838.5	0	0	0	0	0	0	0	0	0	0	0	0	0	0	0	0	0	0	156738	243945	0
1651657282545	-32.696	-25.376	1009.184	0.35	-0.28	-0.63	-84	49.5	-840	0	0	0	0	0	0	0	0	0	0	0	0	0	0	0	0	0	0	156713	243920	0
1651657282555	-44.896	-26.84	1006.256	0.35	-0.35	-0.63	-84	54	-838.5	0	0	0	0	0	0	0	0	0	0	0	0	0	0	0	0	0	0	156727	243890	0
1651657282565	-38.064	-31.72	1006.256	0.28	-0.28	-0.63	-82.5	51	-841.5	0	0	0	0	0	0	0	0	0	0	0	0	0	0	0	0	0	0	156714	243850	0
1651657282575	-38.552	-27.328	1002.84	0.28	-0.28	-0.7	-84	51	-838.5	0	0	0	0	0	0	0	0	0	0	0	0	0	0	0	0	0	0	156707	243822	0
1651657282585	-29.28	-20.984	1010.16	0.28	-0.28	-0.63	-87	55.5	-840	0	0	0	0	0	0	0	0	0	0	0	0	0	0	0	0	0	0	156696	243811	0
1651657282595	-27.816	-21.472	1003.816	0.28	-0.21	-0.63	-82.5	54	-838.5	0	0	0	0	0	0	0	0	0	0	0	0	0	0	0	0	0	0	156683	243780	0
1651657282605	-33.184	-24.4	1009.184	0.35	-0.21	-0.7	-84	54	-840	0	0	0	0	0	0	0	0	0	0	0	0	0	0	0	0	0	0	156669	243789	0
1651657282615	-28.304	-19.032	1015.04	0.28	-0.21	-0.56	-87	55.5	-844.5	0	0	0	0	0	0	0	0	0	0	0	0	0	0	0	0	0	0	156648	243766	0
1651657282625	-38.064	-25.376	1006.744	0.35	-0.28	-0.63	-82.5	55.5	-840	0	0	0	0	0	0	0	0	0	0	0	0	0	0	0	0	0	0	156647	243781	0
1651657282635	-40.992	-27.328	1005.28	0.35	-0.14	-0.56	-84	58.5	-838.5	0	0	0	0	0	0	0	0	0	0	0	0	0	0	0	0	0	0	156623	243802	0
1651657282645	-28.304	-24.888	1003.328	0.35	-0.35	-0.7	-85.5	57	-838.5	0	0	0	0	0	0	0	0	0	0	0	0	0	0	0	0	0	0	156612	243803	0
1651657282655	-35.624	-14.64	1007.232	0.35	-0.21	-0.63	-84	52.5	-841.5	0	0	0	0	0	0	0	0	0	0	0	0	0	0	0	0	0	0	156565	243811	0
1651657282665	-27.328	-22.448	1002.352	0.35	-0.28	-0.77	-78	52.5	-841.5	0	0	0	0	0	0	0	0	0	0	0	0	0	0	0	0	0	0	156543	243831	0
1651657282675	-37.088	-27.328	1003.328	0.35	-0.21	-0.63	-76.5	52.5	-840	0	0	0	0	0	0	0	0	0	0	0	0	0	0	0	0	0	0	156527	243847	0
1651657282685	-37.088	-29.768	1009.672	0.28	-0.35	-0.63	-81	52.5	-837	0	0	0	0	0	0	0	0	0	0	0	0	0	0	0	0	0	0	156509	243856	0
1651657282695	-30.256	-24.4	1012.6	0.21	-0.35	-0.7	-79.5	52.5	-841.5	0	0	0	0	0	0	0	0	0	0	0	0	0	0	0	0	0	0	156480	243859	0
1651657282705	-40.016	-24.888	1008.696	0.35	-0.28	-0.56	-81	57	-843	0	0	0	0	0	0	0	0	0	0	0	0	0	0	0	0	0	0	156473	243853	0
1651657282715	-39.528	-34.648	1009.184	0.35	-0.14	-0.7	-76.5	57	-837	0	0	0	0	0	0	0	0	0	0	0	0	0	0	0	0	0	0	156441	243893	0
1651657282725	-39.528	-20.496	1009.672	0.28	-0.28	-0.56	-76.5	52.5	-832.5	0	0	0	0	0	0	0	0	0	0	0	0	0	0	0	0	0	0	156476	243882	0
1651657282735	-33.672	-22.936	1011.624	0.28	-0.28	-0.63	-87	48	-834	0	0	0	0	0	0	0	0	0	0	0	0	0	0	0	0	0	0	156501	243904	0
1651657282745	-29.28	-18.056	1008.696	0.28	-0.21	-0.56	-91.5	46.5	-838.5	0	0	0	0	0	0	0	0	0	0	0	0	0	0	0	0	0	0	156497	243911	0
1651657282755	-36.112	-20.496	1005.768	0.35	-0.28	-0.7	-88.5	49.5	-840	0	0	0	0	0	0	0	0	0	0	0	0	0	0	0	0	0	0	156512	243902	0
1651657282765	-36.6	-23.912	1008.696	0.28	-0.21	-0.63	-84	52.5	-835.5	0	0	0	0	0	0	0	0	0	0	0	0	0	0	0	0	0	0	156513	243884	0
1651657282775	-33.184	-22.936	1009.672	0.35	-0.28	-0.56	-82.5	51	-837	0	0	0	0	0	0	0	0	0	0	0	0	0	0	0	0	0	0	156514	243848	0
1651657282785	-30.256	-20.984	1003.328	0.28	-0.07	-0.63	-85.5	48	-837	0	0	0	0	0	0	0	0	0	0	0	0	0	0	0	0	0	0	156490	243774	0
1651657282795	-32.208	-20.496	1005.28	0.14	-0.28	-0.63	-84	49.5	-835.5	0	0	0	0	0	0	0	0	0	0	0	0	0	0	0	0	0	0	156466	243668	0
1651657282805	-34.16	-18.544	1011.136	0.35	-0.28	-0.63	-79.5	51	-834	0	0	0	0	0	0	0	0	0	0	0	0	0	0	0	0	0	0	156434	243565	0
1651657282815	-38.552	-20.008	1009.672	0.21	-0.28	-0.63	-81	57	-837	0	0	0	0	0	0	0	0	0	0	0	0	0	0	0	0	0	0	156399	243504	0
1651657282825	-34.16	-18.056	1004.304	0.21	-0.14	-0.56	-81	58.5	-844.5	0	0	0	0	0	0	0	0	0	0	0	0	0	0	0	0	0	0	156381	243431	0
1651657282835	-37.088	-24.4	1003.816	0.28	-0.28	-0.56	-82.5	48	-840	0	0	0	0	0	0	0	0	0	0	0	0	0	0	0	0	0	0	156352	243362	0
1651657282845	-29.768	-28.304	1004.792	0.28	-0.28	-0.63	-82.5	46.5	-843	0	0	0	0	0	0	0	0	0	0	0	0	0	0	0	0	0	0	156335	243319	0
1651657282855	-35.136	-26.352	1008.208	0.28	-0.28	-0.56	-82.5	49.5	-841.5	0	0	0	0	0	0	0	0	0	0	0	0	0	0	0	0	0	0	156331	243336	0
1651657282865	-38.064	-20.496	1004.792	0.28	-0.21	-0.7	-79.5	49.5	-840	0	0	0	0	0	0	0	0	0	0	0	0	0	0	0	0	0	0	156345	243323	0
1651657282875	-34.16	-26.352	1008.696	0.35	-0.28	-0.7	-76.5	46.5	-837	0	0	0	0	0	0	0	0	0	0	0	0	0	0	0	0	0	0	156351	243368	0
1651657282885	-38.064	-26.352	1009.184	0.28	-0.28	-0.7	-78	51	-837	0	0	0	0	0	0	0	0	0	0	0	0	0	0	0	0	0	0	156345	243382	0
1651657282895	-35.136	-29.768	1002.84	0.28	-0.42	-0.7	-76.5	57	-834	0	0	0	0	0	0	0	0	0	0	0	0	0	0	0	0	0	0	156366	243430	0
1651657282905	-32.208	-20.984	1008.208	0.21	-0.21	-0.7	-79.5	55.5	-832.5	0	0	0	0	0	0	0	0	0	0	0	0	0	0	0	0	0	0	156372	243462	0
1651657282915	-40.016	-22.936	1012.6	0.35	-0.21	-0.7	-79.5	49.5	-840	0	0	0	0	0	0	0	0	0	0	0	0	0	0	0	0	0	0	156382	243485	0
1651657282925	-36.112	-29.768	1008.696	0.28	-0.21	-0.63	-76.5	49.5	-834	0	0	0	0	0	0	0	0	0	0	0	0	0	0	0	0	0	0	156398	243514	0
1651657282935	-30.744	-20.008	1008.696	0.35	-0.35	-0.63	-82.5	51	-837	0	0	0	0	0	0	0	0	0	0	0	0	0	0	0	0	0	0	156401	243562	0
1651657282945	-39.04	-27.328	1010.648	0.28	-0.14	-0.63	-81	48	-844.5	0	0	0	0	0	0	0	0	0	0	0	0	0	0	0	0	0	0	156418	243578	0
1651657282955	-36.112	-19.032	1004.792	0.28	-0.28	-0.77	-82.5	43.5	-838.5	0	0	0	0	0	0	0	0	0	0	0	0	0	0	0	0	0	0	156423	243599	0
1651657282965	-49.288	-27.816	1004.792	0.28	-0.14	-0.63	-84	46.5	-840	0	0	0	0	0	0	0	0	0	0	0	0	0	0	0	0	0	0	156432	243619	0
1651657282975	-34.648	-25.376	1012.112	0.35	-0.35	-0.56	-81	52.5	-837	0	0	0	0	0	0	0	0	0	0	0	0	0	0	0	0	0	0	156442	243618	0
1651657282985	-32.696	-22.936	1006.256	0.28	-0.28	-0.7	-84	52.5	-835.5	0	0	0	0	0	0	0	0	0	0	0	0	0	0	0	0	0	0	156450	243640	0
1651657282995	-33.184	-20.496	1009.672	0.35	-0.28	-0.7	-85.5	51	-834	0	0	0	0	0	0	0	0	0	0	0	0	0	0	0	0	0	0	156459	243663	0
1651657283005	-32.696	-28.304	1012.6	0.35	-0.28	-0.7	-84	49.5	-834	0	0	0	0	0	0	0	0	0	0	0	0	0	0	0	0	0	0	156463	243657	0
1651657283015	-34.648	-22.936	1004.304	0.42	-0.21	-0.63	-82.5	48	-834	0	0	0	0	0	0	0	0	0	0	0	0	0	0	0	0	0	0	156471	243666	0
1651657283025	-33.184	-24.4	1014.064	0.42	-0.21	-0.7	-79.5	46.5	-837	0	0	0	0	0	0	0	0	0	0	0	0	0	0	0	0	0	0	156481	243690	0
1651657283035	-38.552	-26.352	1009.184	0.35	-0.28	-0.7	-78	49.5	-837	0	0	0	0	0	0	0	0	0	0	0	0	0	0	0	0	0	0	156485	243710	0
1651657283045	-32.208	-22.936	1008.208	0.28	-0.28	-0.56	-79.5	57	-838.5	0	0	0	0	0	0	0	0	0	0	0	0	0	0	0	0	0	0	156482	243706	0
1651657283055	-31.72	-23.912	1012.112	0.28	-0.28	-0.56	-82.5	57	-846	0	0	0	0	0	0	0	0	0	0	0	0	0	0	0	0	0	0	156476	243706	0
1651657283065	-34.16	-17.568	1012.6	0.21	-0.21	-0.56	-82.5	48	-844.5	0	0	0	0	0	0	0	0	0	0	0	0	0	0	0	0	0	0	156486	243696	0
1651657283075	-32.696	-17.08	1005.28	0.35	-0.21	-0.63	-79.5	48	-838.5	0	0	0	0	0	0	0	0	0	0	0	0	0	0	0	0	0	0	156473	243698	0
1651657283085	-26.84	-19.032	1007.72	0.21	-0.28	-0.56	-79.5	51	-838.5	0	0	0	0	0	0	0	0	0	0	0	0	0	0	0	0	0	0	156464	243678	0
1651657283095	-35.624	-16.592	1014.552	0.35	-0.28	-0.63	-81	51	-840	0	0	0	0	0	0	0	0	0	0	0	0	0	0	0	0	0	0	156436	243687	0
1651657283105	-26.352	-26.352	1004.792	0.35	-0.28	-0.63	-81	48	-838.5	0	0	0	0	0	0	0	0	0	0	0	0	0	0	0	0	0	0	156413	243671	0
1651657283115	-34.16	-21.96	1009.672	0.35	-0.21	-0.56	-81	51	-840	0	0	0	0	0	0	0	0	0	0	0	0	0	0	0	0	0	0	156382	243665	0
1651657283125	-33.184	-18.056	1006.256	0.35	-0.14	-0.7	-79.5	55.5	-837	0	0	0	0	0	0	0	0	0	0	0	0	0	0	0	0	0	0	156351	243661	0
1651657283135	-33.672	-26.84	1003.328	0.35	-0.21	-0.56	-78	54	-840	0	0	0	0	0	0	0	0	0	0	0	0	0	0	0	0	0	0	156348	243685	0
1651657283145	-43.92	-24.4	1012.112	0.21	-0.28	-0.56	-81	52.5	-843	0	0	0	0	0	0	0	0	0	0	0	0	0	0	0	0	0	0	156345	243669	0
1651657283155	-29.768	-27.328	1007.232	0.28	-0.14	-0.56	-85.5	49.5	-840	0	0	0	0	0	0	0	0	0	0	0	0	0	0	0	0	0	0	156320	243672	0
1651657283165	-38.552	-24.4	1006.744	0.21	-0.21	-0.7	-82.5	51	-840	0	0	0	0	0	0	0	0	0	0	0	0	0	0	0	0	0	0	156301	243668	0
1651657283175	-33.672	-20.984	1010.16	0.21	-0.28	-0.63	-84	49.5	-835.5	0	0	0	0	0	0	0	0	0	0	0	0	0	0	0	0	0	0	156303	243660	0
1651657283185	-35.624	-19.032	1006.744	0.28	-0.21	-0.7	-81	52.5	-834	0	0	0	0	0	0	0	0	0	0	0	0	0	0	0	0	0	0	156294	243671	0
1651657283195	-34.16	-21.472	1003.816	0.28	-0.21	-0.63	-78	57	-835.5	0	0	0	0	0	0	0	0	0	0	0	0	0	0	0	0	0	0	156301	243682	0
1651657283205	-39.04	-23.912	1012.6	0.35	-0.35	-0.7	-76.5	52.5	-838.5	0	0	0	0	0	0	0	0	0	0	0	0	0	0	0	0	0	0	156294	243686	0
1651657283215	-40.504	-21.472	1006.744	0.49	-0.21	-0.63	-70.5	51	-838.5	0	0	0	0	0	0	0	0	0	0	0	0	0	0	0	0	0	0	156298	243693	0
1651657283225	-34.648	-25.864	1012.112	0.42	-0.21	-0.77	-76.5	55.5	-837	0	0	0	0	0	0	0	0	0	0	0	0	0	0	0	0	0	0	156297	243699	0
1651657283236	-40.504	-22.448	1007.72	0.49	-0.21	-0.77	-82.5	58.5	-838.5	0	0	0	0	0	0	0	0	0	0	0	0	0	0	0	0	0	0	156301	243709	0
1651657283246	-34.648	-18.544	1010.648	0.35	-0.35	-0.7	-79.5	54	-838.5	0	0	0	0	0	0	0	0	0	0	0	0	0	0	0	0	0	0	156309	243671	0
1651657283256	-33.672	-27.328	1006.256	0.35	-0.28	-0.63	-85.5	52.5	-840	0	0	0	0	0	0	0	0	0	0	0	0	0	0	0	0	0	0	156310	243747	0
1651657283266	-31.232	-23.424	1011.136	0.21	-0.14	-0.56	-84	55.5	-835.5	0	0	0	0	0	0	0	0	0	0	0	0	0	0	0	0	0	0	156310	243761	0
1651657283276	-33.184	-23.424	1003.816	0.28	-0.21	-0.77	-81	54	-835.5	0	0	0	0	0	0	0	0	0	0	0	0	0	0	0	0	0	0	156304	243778	0
1651657283286	-28.304	-24.4	1006.256	0.28	-0.35	-0.7	-87	54	-838.5	0	0	0	0	0	0	0	0	0	0	0	0	0	0	0	0	0	0	156307	243807	0
1651657283296	-40.504	-34.16	1007.232	0.35	-0.28	-0.63	-84	55.5	-837	0	0	0	0	0	0	0	0	0	0	0	0	0	0	0	0	0	0	156293	243819	0
1651657283306	-37.088	-29.768	1011.136	0.21	-0.14	-0.63	-79.5	58.5	-838.5	0	0	0	0	0	0	0	0	0	0	0	0	0	0	0	0	0	0	156295	243815	0
1651657283316	-35.624	-24.888	1008.696	0.42	-0.21	-0.63	-81	57	-840	0	0	0	0	0	0	0	0	0	0	0	0	0	0	0	0	0	0	156304	243817	0
1651657283326	-33.184	-18.544	1006.256	0.35	-0.28	-0.56	-84	51	-838.5	0	0	0	0	0	0	0	0	0	0	0	0	0	0	0	0	0	0	156292	243801	0
1651657283336	-28.304	-17.08	1012.112	0.35	-0.28	-0.63	-81	46.5	-838.5	0	0	0	0	0	0	0	0	0	0	0	0	0	0	0	0	0	0	156278	243792	0
1651657283346	-33.672	-17.568	1011.624	0.21	-0.28	-0.7	-81	49.5	-840	0	0	0	0	0	0	0	0	0	0	0	0	0	0	0	0	0	0	156286	243787	0
1651657283356	-36.6	-29.768	1006.256	0.35	-0.21	-0.7	-82.5	49.5	-835.5	0	0	0	0	0	0	0	0	0	0	0	0	0	0	0	0	0	0	156291	243765	0
1651657283366	-32.208	-17.568	1007.72	0.28	-0.28	-0.7	-81	48	-835.5	0	0	0	0	0	0	0	0	0	0	0	0	0	0	0	0	0	0	156290	243765	0
1651657283376	-29.768	-21.96	1004.792	0.42	-0.21	-0.56	-76.5	49.5	-838.5	0	0	0	0	0	0	0	0	0	0	0	0	0	0	0	0	0	0	156283	243743	0
1651657283386	-36.112	-32.696	1007.232	0.28	-0.35	-0.56	-72	48	-834	0	0	0	0	0	0	0	0	0	0	0	0	0	0	0	0	0	0	156274	243746	0
1651657283396	-35.136	-25.376	1005.768	0.28	-0.28	-0.63	-76.5	49.5	-841.5	0	0	0	0	0	0	0	0	0	0	0	0	0	0	0	0	0	0	156275	243731	0
1651657283406	-35.624	-20.984	1004.792	0.35	-0.35	-0.63	-79.5	54	-844.5	0	0	0	0	0	0	0	0	0	0	0	0	0	0	0	0	0	0	156257	243714	0
1651657283416	-33.184	-27.816	1008.208	0.35	-0.28	-0.63	-75	55.5	-840	0	0	0	0	0	0	0	0	0	0	0	0	0	0	0	0	0	0	156265	243718	0
1651657283426	-32.208	-26.84	1009.672	0.35	-0.35	-0.63	-78	52.5	-838.5	0	0	0	0	0	0	0	0	0	0	0	0	0	0	0	0	0	0	156260	243691	0
1651657283436	-30.256	-29.768	1002.84	0.35	-0.28	-0.56	-79.5	52.5	-837	0	0	0	0	0	0	0	0	0	0	0	0	0	0	0	0	0	0	156239	243682	0
1651657283445	-32.208	-25.864	1006.744	0.28	-0.28	-0.63	-85.5	55.5	-834	0	0	0	0	0	0	0	0	0	0	0	0	0	0	0	0	0	0	156250	243668	0
1651657283455	-35.624	-18.056	1005.768	0.35	-0.21	-0.7	-88.5	54	-835.5	0	0	0	0	0	0	0	0	0	0	0	0	0	0	0	0	0	0	156251	243658	0
1651657283465	-39.528	-25.864	1008.696	0.28	-0.28	-0.7	-79.5	55.5	-840	0	0	0	0	0	0	0	0	0	0	0	0	0	0	0	0	0	0	156242	243645	0
1651657283475	-33.184	-19.52	1012.6	0.28	-0.21	-0.56	-76.5	54	-838.5	0	0	0	0	0	0	0	0	0	0	0	0	0	0	0	0	0	0	156248	243664	0
1651657283485	-42.456	-28.304	1005.768	0.35	-0.28	-0.63	-79.5	52.5	-837	0	0	0	0	0	0	0	0	0	0	0	0	0	0	0	0	0	0	156248	243651	0
1651657283495	-31.72	-24.4	1005.768	0.28	-0.35	-0.63	-84	55.5	-838.5	0	0	0	0	0	0	0	0	0	0	0	0	0	0	0	0	0	0	156243	243650	0
1651657283505	-35.624	-23.912	1012.112	0.28	-0.28	-0.7	-84	52.5	-843	0	0	0	0	0	0	0	0	0	0	0	0	0	0	0	0	0	0	156235	243636	0
1651657283515	-34.16	-23.912	1007.232	0.28	-0.21	-0.56	-81	48	-838.5	0	0	0	0	0	0	0	0	0	0	0	0	0	0	0	0	0	0	156227	243627	0
1651657283525	-29.28	-15.616	1004.792	0.35	-0.28	-0.63	-76.5	51	-835.5	0	0	0	0	0	0	0	0	0	0	0	0	0	0	0	0	0	0	156226	243637	0
1651657283535	-34.648	-18.056	1004.792	0.21	-0.28	-0.7	-76.5	55.5	-838.5	0	0	0	0	0	0	0	0	0	0	0	0	0	0	0	0	0	0	156229	243632	0
1651657283545	-35.624	-22.936	1005.28	0.35	-0.21	-0.63	-85.5	58.5	-840	0	0	0	0	0	0	0	0	0	0	0	0	0	0	0	0	0	0	156216	243622	0
1651657283555	-46.36	-32.208	1010.16	0.42	-0.21	-0.56	-88.5	54	-840	0	0	0	0	0	0	0	0	0	0	0	0	0	0	0	0	0	0	156212	243640	0
1651657283565	-34.16	-26.84	1001.864	0.28	-0.28	-0.63	-84	51	-841.5	0	0	0	0	0	0	0	0	0	0	0	0	0	0	0	0	0	0	156220	243628	0
1651657283575	-34.16	-30.256	1010.648	0.28	-0.28	-0.63	-78	51	-841.5	0	0	0	0	0	0	0	0	0	0	0	0	0	0	0	0	0	0	156219	243631	0
1651657283585	-33.672	-19.52	1006.256	0.42	-0.28	-0.7	-82.5	49.5	-835.5	0	0	0	0	0	0	0	0	0	0	0	0	0	0	0	0	0	0	156213	243640	0
1651657283595	-32.208	-26.352	1014.552	0.35	-0.28	-0.7	-84	52.5	-832.5	0	0	0	0	0	0	0	0	0	0	0	0	0	0	0	0	0	0	156201	243617	0
1651657283605	-39.528	-27.328	1006.744	0.35	-0.21	-0.7	-82.5	52.5	-838.5	0	0	0	0	0	0	0	0	0	0	0	0	0	0	0	0	0	0	156206	243622	0
1651657283615	-38.064	-17.08	1009.184	0.35	-0.28	-0.7	-81	46.5	-841.5	0	0	0	0	0	0	0	0	0	0	0	0	0	0	0	0	0	0	156185	243607	0
1651657283625	-31.72	-22.936	1010.16	0.28	-0.28	-0.63	-76.5	48	-838.5	0	0	0	0	0	0	0	0	0	0	0	0	0	0	0	0	0	0	156175	243601	0
1651657283635	-35.136	-28.792	1011.136	0.28	-0.35	-0.63	-79.5	52.5	-834	0	0	0	0	0	0	0	0	0	0	0	0	0	0	0	0	0	0	156149	243604	0
1651657283645	-27.328	-22.448	1007.72	0.28	-0.35	-0.56	-82.5	51	-838.5	0	0	0	0	0	0	0	0	0	0	0	0	0	0	0	0	0	0	156140	243598	0
1651657283655	-35.624	-24.888	1005.28	0.49	-0.28	-0.56	-82.5	48	-837	0	0	0	0	0	0	0	0	0	0	0	0	0	0	0	0	0	0	156094	243577	0
1651657283665	-38.064	-22.448	1013.576	0.35	-0.28	-0.63	-85.5	54	-837	0	0	0	0	0	0	0	0	0	0	0	0	0	0	0	0	0	0	156064	243567	0
1651657283675	-33.672	-21.472	1005.768	0.28	-0.28	-0.63	-85.5	57	-844.5	0	0	0	0	0	0	0	0	0	0	0	0	0	0	0	0	0	0	156025	243554	0
1651657283685	-37.576	-27.328	1005.28	0.35	-0.21	-0.63	-81	54	-837	0	0	0	0	0	0	0	0	0	0	0	0	0	0	0	0	0	0	155980	243502	0
1651657283695	-37.088	-19.032	1008.208	0.28	-0.21	-0.7	-76.5	51	-831	0	0	0	0	0	0	0	0	0	0	0	0	0	0	0	0	0	0	155955	243429	0
1651657283705	-34.16	-23.424	1006.256	0.28	-0.28	-0.63	-76.5	49.5	-837	0	0	0	0	0	0	0	0	0	0	0	0	0	0	0	0	0	0	155904	243326	0
1651657283715	-34.16	-17.08	1001.864	0.28	-0.21	-0.63	-79.5	52.5	-844.5	0	0	0	0	0	0	0	0	0	0	0	0	0	0	0	0	0	0	155871	243198	0
1651657283725	-34.16	-22.936	1010.648	0.35	-0.28	-0.7	-75	55.5	-837	0	0	0	0	0	0	0	0	0	0	0	0	0	0	0	0	0	0	155823	243085	0
1651657283735	-42.944	-30.256	1007.72	0.35	-0.35	-0.7	-75	49.5	-834	0	0	0	0	0	0	0	0	0	0	0	0	0	0	0	0	0	0	155812	242969	0
1651657283745	-27.816	-25.376	1007.232	0.35	-0.21	-0.7	-78	46.5	-843	0	0	0	0	0	0	0	0	0	0	0	0	0	0	0	0	0	0	155779	242855	0
1651657283755	-34.648	-23.424	1010.16	0.07	-0.42	-0.56	-76.5	52.5	-846	0	0	0	0	0	0	0	0	0	0	0	0	0	0	0	0	0	0	155745	242780	0
1651657283765	-38.064	-26.84	1010.648	0.14	-0.28	-0.56	-78	51	-838.5	0	0	0	0	0	0	0	0	0	0	0	0	0	0	0	0	0	0	155736	242745	0
1651657283775	-40.016	-20.008	1002.84	0.28	-0.28	-0.63	-81	48	-838.5	0	0	0	0	0	0	0	0	0	0	0	0	0	0	0	0	0	0	155704	242716	0
1651657283785	-33.672	-21.96	1007.232	0.28	-0.28	-0.63	-82.5	52.5	-841.5	0	0	0	0	0	0	0	0	0	0	0	0	0	0	0	0	0	0	155708	242690	0
1651657283795	-29.28	-24.888	1005.768	0.28	-0.28	-0.7	-81	54	-838.5	0	0	0	0	0	0	0	0	0	0	0	0	0	0	0	0	0	0	155693	242687	0
1651657283805	-34.648	-18.056	1009.672	0.28	-0.21	-0.63	-79.5	52.5	-837	0	0	0	0	0	0	0	0	0	0	0	0	0	0	0	0	0	0	155711	242686	0
1651657283815	-31.232	-18.544	1009.672	0.35	-0.28	-0.63	-78	52.5	-840	0	0	0	0	0	0	0	0	0	0	0	0	0	0	0	0	0	0	155692	242693	0
1651657283825	-40.016	-21.96	1006.744	0.21	-0.21	-0.77	-76.5	51	-837	0	0	0	0	0	0	0	0	0	0	0	0	0	0	0	0	0	0	155696	242700	0
1651657283835	-36.6	-21.96	1002.84	0.28	-0.21	-0.56	-81	51	-837	0	0	0	0	0	0	0	0	0	0	0	0	0	0	0	0	0	0	155700	242699	0
1651657283845	-37.088	-24.4	1008.208	0.42	-0.35	-0.63	-82.5	51	-844.5	0	0	0	0	0	0	0	0	0	0	0	0	0	0	0	0	0	0	155700	242717	0
1651657283855	-32.208	-27.328	1012.6	0.14	-0.35	-0.63	-81	52.5	-843	0	0	0	0	0	0	0	0	0	0	0	0	0	0	0	0	0	0	155704	242716	0
1651657283865	-29.768	-27.328	1011.624	0.14	-0.21	-0.56	-81	52.5	-838.5	0	0	0	0	0	0	0	0	0	0	0	0	0	0	0	0	0	0	155700	242729	0
1651657283875	-35.624	-23.912	1009.672	0.21	-0.21	-0.63	-82.5	49.5	-837	0	0	0	0	0	0	0	0	0	0	0	0	0	0	0	0	0	0	155710	242747	0
1651657283885	-34.648	-24.4	1011.624	0.35	-0.28	-0.63	-85.5	52.5	-840	0	0	0	0	0	0	0	0	0	0	0	0	0	0	0	0	0	0	155698	242737	0
1651657283895	-36.112	-29.768	1008.696	0.28	-0.21	-0.7	-87	51	-840	0	0	0	0	0	0	0	0	0	0	0	0	0	0	0	0	0	0	155705	242745	0
1651657283905	-35.624	-23.912	1010.16	0.35	-0.28	-0.63	-87	48	-838.5	0	0	0	0	0	0	0	0	0	0	0	0	0	0	0	0	0	0	155697	242736	0
1651657283915	-31.72	-31.232	1008.696	0.28	-0.28	-0.7	-82.5	49.5	-843	0	0	0	0	0	0	0	0	0	0	0	0	0	0	0	0	0	0	155694	242743	0
1651657283925	-33.672	-26.352	1011.136	0.35	-0.14	-0.63	-78	48	-838.5	0	0	0	0	0	0	0	0	0	0	0	0	0	0	0	0	0	0	155699	242752	0
1651657283935	-28.792	-21.472	1010.16	0.21	-0.21	-0.63	-81	51	-837	0	0	0	0	0	0	0	0	0	0	0	0	0	0	0	0	0	0	155709	242754	0
1651657283945	-33.184	-24.4	1006.744	0.21	-0.14	-0.7	-85.5	54	-837	0	0	0	0	0	0	0	0	0	0	0	0	0	0	0	0	0	0	155716	242762	0
1651657283955	-36.112	-24.888	1011.136	0.35	-0.28	-0.63	-85.5	52.5	-837	0	0	0	0	0	0	0	0	0	0	0	0	0	0	0	0	0	0	155727	242735	0
1651657283965	-37.576	-23.912	1010.16	0.42	-0.21	-0.7	-81	51	-837	0	0	0	0	0	0	0	0	0	0	0	0	0	0	0	0	0	0	155723	242733	0
1651657283975	-35.624	-25.376	1004.304	0.28	-0.21	-0.7	-81	48	-838.5	0	0	0	0	0	0	0	0	0	0	0	0	0	0	0	0	0	0	155732	242710	0
1651657283985	-33.184	-28.792	1004.304	0.28	-0.21	-0.63	-78	54	-840	0	0	0	0	0	0	0	0	0	0	0	0	0	0	0	0	0	0	155725	242679	0
1651657283995	-36.112	-24.4	1008.208	0.35	-0.28	-0.56	-78	55.5	-837	0	0	0	0	0	0	0	0	0	0	0	0	0	0	0	0	0	0	155715	242650	0
1651657284005	-33.672	-26.352	1010.648	0.35	-0.21	-0.7	-81	54	-835.5	0	0	0	0	0	0	0	0	0	0	0	0	0	0	0	0	0	0	155708	242584	0
1651657284015	-31.72	-21.96	1010.648	0.28	-0.28	-0.56	-81	52.5	-838.5	0	0	0	0	0	0	0	0	0	0	0	0	0	0	0	0	0	0	155704	242536	0
1651657284025	-35.624	-31.232	1009.184	0.28	-0.21	-0.77	-81	46.5	-835.5	0	0	0	0	0	0	0	0	0	0	0	0	0	0	0	0	0	0	155702	242471	0
1651657284035	-35.136	-28.792	1011.624	0.28	-0.28	-0.63	-79.5	49.5	-832.5	0	0	0	0	0	0	0	0	0	0	0	0	0	0	0	0	0	0	155660	242400	0
